File: dat/msa/Si-Cal-20kV/Si-20kV-S5-P4-4K.msa
#FORMAT      : EMSA/MAS Spectral Data File
#VERSION     : 1.0
#TITLE       : Si-20kV-S5-P4-4K
#DATE        : 16-SEP-2016
#TIME        : 11:25
#OWNER       : John Minter
#NPOINTS     : 4096.0
#NCOLUMNS    : 1.0
#XUNITS      : keV
#YUNITS      : counts
#DATATYPE    : XY
#XPERCHAN    : 0.005
#OFFSET      : -0.2
#SIGNALTYPE  : EDS
#CHOFFSET    : 40.0
#LIVETIME    : 100.0
#REALTIME    : 194.339
#BEAMKV      : 20.0
#PROBECUR    : 3.49
#MAGCAM      : 8000.0
#XTILTSTGE   : 0.0
#AZIMANGLE   : 0.0
#ELEVANGLE   : 35.0
#XPOSITION mm: 1.6240
#YPOSITION mm: -1.3010
#ZPOSITION mm: 4.7660
##OXINSTPT   : 4
##OXINSTSTROB: 48.13
##OXINSTELEMS: 14,6
##OXINSTLABEL: 14, 1.740, Si
##OXINSTLABEL: 6, 0.277, C
#SPECTRUM    : Spectral Data Starts Here
-0.20000, 0.0
-0.18500, 0.0
-0.17000, 0.0
-0.15500, 0.0
-0.14000, 0.0
-0.12500, 0.0
-0.11000, 0.0
-0.09500, 0.0
-0.08000, 0.0
-0.06500, 3.0
-0.05000, 19.0
-0.03500, 114.0
-0.02000, 453.0
-0.00500, 982.0
0.01000, 1407.0
0.02500, 1511.0
0.04000, 1371.0
0.05500, 1045.0
0.07000, 1038.0
0.08500, 1432.0
0.10000, 1664.0
0.11500, 1260.0
0.13000, 686.0
0.14500, 356.0
0.16000, 261.0
0.17500, 233.0
0.19000, 196.0
0.20500, 226.0
0.22000, 260.0
0.23500, 316.0
0.25000, 462.0
0.26500, 591.0
0.28000, 599.0
0.29500, 489.0
0.31000, 330.0
0.32500, 273.0
0.34000, 236.0
0.35500, 236.0
0.37000, 270.0
0.38500, 308.0
0.40000, 337.0
0.41500, 373.0
0.43000, 405.0
0.44500, 505.0
0.46000, 506.0
0.47500, 546.0
0.49000, 690.0
0.50500, 730.0
0.52000, 781.0
0.53500, 722.0
0.55000, 702.0
0.56500, 695.0
0.58000, 687.0
0.59500, 718.0
0.61000, 794.0
0.62500, 772.0
0.64000, 931.0
0.65500, 946.0
0.67000, 1068.0
0.68500, 1104.0
0.70000, 1093.0
0.71500, 1222.0
0.73000, 1214.0
0.74500, 1245.0
0.76000, 1402.0
0.77500, 1430.0
0.79000, 1546.0
0.80500, 1524.0
0.82000, 1609.0
0.83500, 1708.0
0.85000, 1730.0
0.86500, 1769.0
0.88000, 1850.0
0.89500, 1877.0
0.91000, 1834.0
0.92500, 1924.0
0.94000, 1971.0
0.95500, 2055.0
0.97000, 1955.0
0.98500, 2048.0
1.00000, 2148.0
1.01500, 2070.0
1.03000, 2133.0
1.04500, 2305.0
1.06000, 2217.0
1.07500, 2311.0
1.09000, 2206.0
1.10500, 2272.0
1.12000, 2349.0
1.13500, 2284.0
1.15000, 2332.0
1.16500, 2345.0
1.18000, 2273.0
1.19500, 2372.0
1.21000, 2473.0
1.22500, 2521.0
1.24000, 2398.0
1.25500, 2525.0
1.27000, 2459.0
1.28500, 2559.0
1.30000, 2516.0
1.31500, 2569.0
1.33000, 2612.0
1.34500, 2581.0
1.36000, 2559.0
1.37500, 2759.0
1.39000, 2726.0
1.40500, 2825.0
1.42000, 2843.0
1.43500, 2922.0
1.45000, 3058.0
1.46500, 3169.0
1.48000, 3292.0
1.49500, 3371.0
1.51000, 3487.0
1.52500, 3630.0
1.54000, 3728.0
1.55500, 3780.0
1.57000, 3951.0
1.58500, 3838.0
1.60000, 3775.0
1.61500, 4098.0
1.63000, 5300.0
1.64500, 10267.0
1.66000, 25033.0
1.67500, 60223.0
1.69000, 126215.0
1.70500, 222736.0
1.72000, 324737.0
1.73500, 391887.0
1.75000, 393651.0
1.76500, 327270.0
1.78000, 227279.0
1.79500, 136412.0
1.81000, 73351.0
1.82500, 40742.0
1.84000, 25346.0
1.85500, 17385.0
1.87000, 11635.0
1.88500, 7274.0
1.90000, 4054.0
1.91500, 2154.0
1.93000, 1180.0
1.94500, 869.0
1.96000, 671.0
1.97500, 666.0
1.99000, 701.0
2.00500, 665.0
2.02000, 646.0
2.03500, 634.0
2.05000, 638.0
2.06500, 657.0
2.08000, 630.0
2.09500, 623.0
2.11000, 641.0
2.12500, 672.0
2.14000, 652.0
2.15500, 613.0
2.17000, 633.0
2.18500, 675.0
2.20000, 670.0
2.21500, 684.0
2.23000, 666.0
2.24500, 662.0
2.26000, 671.0
2.27500, 735.0
2.29000, 726.0
2.30500, 742.0
2.32000, 708.0
2.33500, 742.0
2.35000, 736.0
2.36500, 736.0
2.38000, 733.0
2.39500, 727.0
2.41000, 740.0
2.42500, 777.0
2.44000, 730.0
2.45500, 801.0
2.47000, 810.0
2.48500, 771.0
2.50000, 786.0
2.51500, 801.0
2.53000, 812.0
2.54500, 806.0
2.56000, 836.0
2.57500, 824.0
2.59000, 809.0
2.60500, 863.0
2.62000, 834.0
2.63500, 845.0
2.65000, 839.0
2.66500, 888.0
2.68000, 841.0
2.69500, 862.0
2.71000, 851.0
2.72500, 844.0
2.74000, 879.0
2.75500, 877.0
2.77000, 899.0
2.78500, 880.0
2.80000, 881.0
2.81500, 890.0
2.83000, 856.0
2.84500, 867.0
2.86000, 901.0
2.87500, 878.0
2.89000, 843.0
2.90500, 870.0
2.92000, 899.0
2.93500, 883.0
2.95000, 849.0
2.96500, 898.0
2.98000, 881.0
2.99500, 900.0
3.01000, 901.0
3.02500, 889.0
3.04000, 859.0
3.05500, 870.0
3.07000, 874.0
3.08500, 903.0
3.10000, 893.0
3.11500, 896.0
3.13000, 911.0
3.14500, 918.0
3.16000, 877.0
3.17500, 890.0
3.19000, 889.0
3.20500, 933.0
3.22000, 924.0
3.23500, 907.0
3.25000, 939.0
3.26500, 913.0
3.28000, 943.0
3.29500, 949.0
3.31000, 947.0
3.32500, 958.0
3.34000, 975.0
3.35500, 1043.0
3.37000, 1219.0
3.38500, 1516.0
3.40000, 2296.0
3.41500, 3378.0
3.43000, 4942.0
3.44500, 6798.0
3.46000, 8527.0
3.47500, 9661.0
3.49000, 9829.0
3.50500, 9075.0
3.52000, 7721.0
3.53500, 6016.0
3.55000, 4490.0
3.56500, 3223.0
3.58000, 2412.0
3.59500, 1815.0
3.61000, 1503.0
3.62500, 1251.0
3.64000, 1077.0
3.65500, 888.0
3.67000, 828.0
3.68500, 752.0
3.70000, 753.0
3.71500, 749.0
3.73000, 720.0
3.74500, 685.0
3.76000, 668.0
3.77500, 679.0
3.79000, 691.0
3.80500, 678.0
3.82000, 697.0
3.83500, 670.0
3.85000, 677.0
3.86500, 676.0
3.88000, 703.0
3.89500, 666.0
3.91000, 673.0
3.92500, 680.0
3.94000, 653.0
3.95500, 651.0
3.97000, 710.0
3.98500, 674.0
4.00000, 654.0
4.01500, 715.0
4.03000, 655.0
4.04500, 658.0
4.06000, 617.0
4.07500, 666.0
4.09000, 658.0
4.10500, 678.0
4.12000, 630.0
4.13500, 654.0
4.15000, 645.0
4.16500, 611.0
4.18000, 665.0
4.19500, 637.0
4.21000, 661.0
4.22500, 627.0
4.24000, 637.0
4.25500, 643.0
4.27000, 683.0
4.28500, 636.0
4.30000, 646.0
4.31500, 628.0
4.33000, 637.0
4.34500, 634.0
4.36000, 607.0
4.37500, 616.0
4.39000, 631.0
4.40500, 641.0
4.42000, 615.0
4.43500, 615.0
4.45000, 657.0
4.46500, 616.0
4.48000, 608.0
4.49500, 636.0
4.51000, 629.0
4.52500, 605.0
4.54000, 643.0
4.55500, 626.0
4.57000, 610.0
4.58500, 622.0
4.60000, 612.0
4.61500, 616.0
4.63000, 577.0
4.64500, 607.0
4.66000, 605.0
4.67500, 604.0
4.69000, 590.0
4.70500, 543.0
4.72000, 572.0
4.73500, 574.0
4.75000, 601.0
4.76500, 593.0
4.78000, 594.0
4.79500, 564.0
4.81000, 569.0
4.82500, 555.0
4.84000, 595.0
4.85500, 575.0
4.87000, 594.0
4.88500, 573.0
4.90000, 580.0
4.91500, 564.0
4.93000, 556.0
4.94500, 584.0
4.96000, 532.0
4.97500, 557.0
4.99000, 559.0
5.00500, 561.0
5.02000, 585.0
5.03500, 550.0
5.05000, 573.0
5.06500, 559.0
5.08000, 573.0
5.09500, 564.0
5.11000, 547.0
5.12500, 556.0
5.14000, 591.0
5.15500, 615.0
5.17000, 645.0
5.18500, 684.0
5.20000, 718.0
5.21500, 790.0
5.23000, 740.0
5.24500, 732.0
5.26000, 700.0
5.27500, 713.0
5.29000, 649.0
5.30500, 644.0
5.32000, 582.0
5.33500, 556.0
5.35000, 554.0
5.36500, 532.0
5.38000, 528.0
5.39500, 508.0
5.41000, 507.0
5.42500, 515.0
5.44000, 493.0
5.45500, 495.0
5.47000, 482.0
5.48500, 500.0
5.50000, 464.0
5.51500, 507.0
5.53000, 474.0
5.54500, 491.0
5.56000, 490.0
5.57500, 497.0
5.59000, 482.0
5.60500, 490.0
5.62000, 483.0
5.63500, 461.0
5.65000, 468.0
5.66500, 460.0
5.68000, 432.0
5.69500, 463.0
5.71000, 484.0
5.72500, 457.0
5.74000, 464.0
5.75500, 445.0
5.77000, 494.0
5.78500, 465.0
5.80000, 491.0
5.81500, 434.0
5.83000, 484.0
5.84500, 446.0
5.86000, 450.0
5.87500, 455.0
5.89000, 448.0
5.90500, 442.0
5.92000, 466.0
5.93500, 453.0
5.95000, 426.0
5.96500, 453.0
5.98000, 454.0
5.99500, 394.0
6.01000, 424.0
6.02500, 435.0
6.04000, 407.0
6.05500, 432.0
6.07000, 432.0
6.08500, 451.0
6.10000, 434.0
6.11500, 427.0
6.13000, 413.0
6.14500, 438.0
6.16000, 438.0
6.17500, 445.0
6.19000, 411.0
6.20500, 409.0
6.22000, 406.0
6.23500, 396.0
6.25000, 429.0
6.26500, 392.0
6.28000, 384.0
6.29500, 394.0
6.31000, 387.0
6.32500, 428.0
6.34000, 413.0
6.35500, 416.0
6.37000, 386.0
6.38500, 406.0
6.40000, 400.0
6.41500, 377.0
6.43000, 405.0
6.44500, 392.0
6.46000, 385.0
6.47500, 385.0
6.49000, 387.0
6.50500, 375.0
6.52000, 394.0
6.53500, 382.0
6.55000, 379.0
6.56500, 384.0
6.58000, 375.0
6.59500, 359.0
6.61000, 387.0
6.62500, 368.0
6.64000, 373.0
6.65500, 376.0
6.67000, 386.0
6.68500, 350.0
6.70000, 356.0
6.71500, 384.0
6.73000, 369.0
6.74500, 357.0
6.76000, 353.0
6.77500, 378.0
6.79000, 370.0
6.80500, 369.0
6.82000, 380.0
6.83500, 383.0
6.85000, 379.0
6.86500, 349.0
6.88000, 360.0
6.89500, 359.0
6.91000, 347.0
6.92500, 328.0
6.94000, 337.0
6.95500, 362.0
6.97000, 378.0
6.98500, 328.0
7.00000, 325.0
7.01500, 356.0
7.03000, 307.0
7.04500, 323.0
7.06000, 323.0
7.07500, 364.0
7.09000, 344.0
7.10500, 358.0
7.12000, 349.0
7.13500, 334.0
7.15000, 334.0
7.16500, 328.0
7.18000, 331.0
7.19500, 354.0
7.21000, 338.0
7.22500, 324.0
7.24000, 340.0
7.25500, 299.0
7.27000, 317.0
7.28500, 303.0
7.30000, 307.0
7.31500, 318.0
7.33000, 326.0
7.34500, 306.0
7.36000, 319.0
7.37500, 320.0
7.39000, 319.0
7.40500, 344.0
7.42000, 320.0
7.43500, 278.0
7.45000, 315.0
7.46500, 313.0
7.48000, 298.0
7.49500, 317.0
7.51000, 293.0
7.52500, 300.0
7.54000, 296.0
7.55500, 286.0
7.57000, 292.0
7.58500, 316.0
7.60000, 320.0
7.61500, 299.0
7.63000, 310.0
7.64500, 280.0
7.66000, 285.0
7.67500, 300.0
7.69000, 278.0
7.70500, 296.0
7.72000, 296.0
7.73500, 301.0
7.75000, 309.0
7.76500, 288.0
7.78000, 280.0
7.79500, 311.0
7.81000, 317.0
7.82500, 279.0
7.84000, 297.0
7.85500, 284.0
7.87000, 303.0
7.88500, 249.0
7.90000, 281.0
7.91500, 273.0
7.93000, 279.0
7.94500, 259.0
7.96000, 309.0
7.97500, 288.0
7.99000, 285.0
8.00500, 281.0
8.02000, 268.0
8.03500, 277.0
8.05000, 297.0
8.06500, 276.0
8.08000, 260.0
8.09500, 250.0
8.11000, 285.0
8.12500, 263.0
8.14000, 240.0
8.15500, 267.0
8.17000, 281.0
8.18500, 273.0
8.20000, 273.0
8.21500, 269.0
8.23000, 252.0
8.24500, 241.0
8.26000, 238.0
8.27500, 269.0
8.29000, 281.0
8.30500, 268.0
8.32000, 271.0
8.33500, 247.0
8.35000, 271.0
8.36500, 271.0
8.38000, 277.0
8.39500, 265.0
8.41000, 262.0
8.42500, 260.0
8.44000, 246.0
8.45500, 260.0
8.47000, 250.0
8.48500, 234.0
8.50000, 242.0
8.51500, 221.0
8.53000, 239.0
8.54500, 250.0
8.56000, 270.0
8.57500, 247.0
8.59000, 242.0
8.60500, 246.0
8.62000, 250.0
8.63500, 242.0
8.65000, 234.0
8.66500, 234.0
8.68000, 230.0
8.69500, 238.0
8.71000, 231.0
8.72500, 243.0
8.74000, 282.0
8.75500, 238.0
8.77000, 223.0
8.78500, 226.0
8.80000, 234.0
8.81500, 228.0
8.83000, 234.0
8.84500, 217.0
8.86000, 225.0
8.87500, 214.0
8.89000, 227.0
8.90500, 243.0
8.92000, 225.0
8.93500, 227.0
8.95000, 238.0
8.96500, 236.0
8.98000, 229.0
8.99500, 213.0
9.01000, 216.0
9.02500, 215.0
9.04000, 226.0
9.05500, 211.0
9.07000, 186.0
9.08500, 203.0
9.10000, 231.0
9.11500, 194.0
9.13000, 235.0
9.14500, 222.0
9.16000, 247.0
9.17500, 219.0
9.19000, 197.0
9.20500, 224.0
9.22000, 207.0
9.23500, 227.0
9.25000, 217.0
9.26500, 229.0
9.28000, 203.0
9.29500, 228.0
9.31000, 216.0
9.32500, 229.0
9.34000, 224.0
9.35500, 194.0
9.37000, 215.0
9.38500, 232.0
9.40000, 193.0
9.41500, 194.0
9.43000, 211.0
9.44500, 230.0
9.46000, 209.0
9.47500, 193.0
9.49000, 205.0
9.50500, 211.0
9.52000, 169.0
9.53500, 203.0
9.55000, 206.0
9.56500, 158.0
9.58000, 204.0
9.59500, 196.0
9.61000, 199.0
9.62500, 173.0
9.64000, 217.0
9.65500, 193.0
9.67000, 187.0
9.68500, 186.0
9.70000, 173.0
9.71500, 191.0
9.73000, 208.0
9.74500, 210.0
9.76000, 211.0
9.77500, 188.0
9.79000, 194.0
9.80500, 196.0
9.82000, 194.0
9.83500, 197.0
9.85000, 181.0
9.86500, 183.0
9.88000, 189.0
9.89500, 169.0
9.91000, 183.0
9.92500, 169.0
9.94000, 174.0
9.95500, 191.0
9.97000, 180.0
9.98500, 191.0
10.00000, 178.0
10.01500, 193.0
10.03000, 188.0
10.04500, 196.0
10.06000, 162.0
10.07500, 167.0
10.09000, 162.0
10.10500, 182.0
10.12000, 156.0
10.13500, 173.0
10.15000, 163.0
10.16500, 180.0
10.18000, 181.0
10.19500, 173.0
10.21000, 167.0
10.22500, 170.0
10.24000, 171.0
10.25500, 184.0
10.27000, 162.0
10.28500, 156.0
10.30000, 134.0
10.31500, 149.0
10.33000, 162.0
10.34500, 178.0
10.36000, 152.0
10.37500, 166.0
10.39000, 162.0
10.40500, 155.0
10.42000, 156.0
10.43500, 151.0
10.45000, 156.0
10.46500, 161.0
10.48000, 174.0
10.49500, 158.0
10.51000, 143.0
10.52500, 169.0
10.54000, 159.0
10.55500, 132.0
10.57000, 170.0
10.58500, 150.0
10.60000, 160.0
10.61500, 163.0
10.63000, 137.0
10.64500, 136.0
10.66000, 156.0
10.67500, 150.0
10.69000, 174.0
10.70500, 156.0
10.72000, 151.0
10.73500, 153.0
10.75000, 169.0
10.76500, 163.0
10.78000, 154.0
10.79500, 151.0
10.81000, 137.0
10.82500, 150.0
10.84000, 154.0
10.85500, 143.0
10.87000, 154.0
10.88500, 147.0
10.90000, 128.0
10.91500, 148.0
10.93000, 139.0
10.94500, 135.0
10.96000, 152.0
10.97500, 135.0
10.99000, 131.0
11.00500, 142.0
11.02000, 145.0
11.03500, 120.0
11.05000, 144.0
11.06500, 140.0
11.08000, 140.0
11.09500, 123.0
11.11000, 130.0
11.12500, 142.0
11.14000, 153.0
11.15500, 124.0
11.17000, 141.0
11.18500, 129.0
11.20000, 134.0
11.21500, 134.0
11.23000, 143.0
11.24500, 137.0
11.26000, 122.0
11.27500, 121.0
11.29000, 121.0
11.30500, 146.0
11.32000, 114.0
11.33500, 112.0
11.35000, 141.0
11.36500, 145.0
11.38000, 123.0
11.39500, 117.0
11.41000, 125.0
11.42500, 119.0
11.44000, 127.0
11.45500, 129.0
11.47000, 126.0
11.48500, 119.0
11.50000, 126.0
11.51500, 116.0
11.53000, 129.0
11.54500, 118.0
11.56000, 116.0
11.57500, 129.0
11.59000, 117.0
11.60500, 100.0
11.62000, 121.0
11.63500, 115.0
11.65000, 113.0
11.66500, 123.0
11.68000, 99.0
11.69500, 114.0
11.71000, 119.0
11.72500, 117.0
11.74000, 122.0
11.75500, 111.0
11.77000, 113.0
11.78500, 100.0
11.80000, 112.0
11.81500, 123.0
11.83000, 110.0
11.84500, 123.0
11.86000, 94.0
11.87500, 101.0
11.89000, 100.0
11.90500, 100.0
11.92000, 107.0
11.93500, 124.0
11.95000, 106.0
11.96500, 113.0
11.98000, 122.0
11.99500, 96.0
12.01000, 109.0
12.02500, 107.0
12.04000, 81.0
12.05500, 110.0
12.07000, 109.0
12.08500, 89.0
12.10000, 99.0
12.11500, 102.0
12.13000, 102.0
12.14500, 100.0
12.16000, 96.0
12.17500, 97.0
12.19000, 102.0
12.20500, 99.0
12.22000, 100.0
12.23500, 98.0
12.25000, 103.0
12.26500, 95.0
12.28000, 96.0
12.29500, 100.0
12.31000, 86.0
12.32500, 103.0
12.34000, 84.0
12.35500, 100.0
12.37000, 86.0
12.38500, 108.0
12.40000, 89.0
12.41500, 94.0
12.43000, 102.0
12.44500, 106.0
12.46000, 98.0
12.47500, 97.0
12.49000, 95.0
12.50500, 93.0
12.52000, 85.0
12.53500, 91.0
12.55000, 90.0
12.56500, 86.0
12.58000, 92.0
12.59500, 93.0
12.61000, 78.0
12.62500, 95.0
12.64000, 89.0
12.65500, 80.0
12.67000, 83.0
12.68500, 85.0
12.70000, 83.0
12.71500, 87.0
12.73000, 92.0
12.74500, 86.0
12.76000, 77.0
12.77500, 80.0
12.79000, 81.0
12.80500, 82.0
12.82000, 81.0
12.83500, 72.0
12.85000, 93.0
12.86500, 85.0
12.88000, 79.0
12.89500, 72.0
12.91000, 84.0
12.92500, 79.0
12.94000, 82.0
12.95500, 74.0
12.97000, 83.0
12.98500, 81.0
13.00000, 87.0
13.01500, 81.0
13.03000, 82.0
13.04500, 65.0
13.06000, 81.0
13.07500, 75.0
13.09000, 75.0
13.10500, 77.0
13.12000, 85.0
13.13500, 72.0
13.15000, 70.0
13.16500, 66.0
13.18000, 75.0
13.19500, 76.0
13.21000, 73.0
13.22500, 64.0
13.24000, 69.0
13.25500, 71.0
13.27000, 67.0
13.28500, 81.0
13.30000, 68.0
13.31500, 69.0
13.33000, 79.0
13.34500, 61.0
13.36000, 68.0
13.37500, 69.0
13.39000, 76.0
13.40500, 74.0
13.42000, 67.0
13.43500, 79.0
13.45000, 66.0
13.46500, 72.0
13.48000, 72.0
13.49500, 63.0
13.51000, 75.0
13.52500, 74.0
13.54000, 60.0
13.55500, 71.0
13.57000, 73.0
13.58500, 60.0
13.60000, 71.0
13.61500, 71.0
13.63000, 68.0
13.64500, 65.0
13.66000, 57.0
13.67500, 63.0
13.69000, 71.0
13.70500, 55.0
13.72000, 59.0
13.73500, 54.0
13.75000, 56.0
13.76500, 69.0
13.78000, 51.0
13.79500, 61.0
13.81000, 59.0
13.82500, 68.0
13.84000, 66.0
13.85500, 58.0
13.87000, 65.0
13.88500, 66.0
13.90000, 52.0
13.91500, 57.0
13.93000, 65.0
13.94500, 64.0
13.96000, 54.0
13.97500, 59.0
13.99000, 68.0
14.00500, 57.0
14.02000, 55.0
14.03500, 56.0
14.05000, 70.0
14.06500, 59.0
14.08000, 56.0
14.09500, 60.0
14.11000, 66.0
14.12500, 55.0
14.14000, 52.0
14.15500, 61.0
14.17000, 51.0
14.18500, 58.0
14.20000, 55.0
14.21500, 51.0
14.23000, 50.0
14.24500, 49.0
14.26000, 50.0
14.27500, 52.0
14.29000, 56.0
14.30500, 45.0
14.32000, 56.0
14.33500, 46.0
14.35000, 47.0
14.36500, 50.0
14.38000, 51.0
14.39500, 42.0
14.41000, 56.0
14.42500, 47.0
14.44000, 52.0
14.45500, 48.0
14.47000, 50.0
14.48500, 51.0
14.50000, 45.0
14.51500, 46.0
14.53000, 44.0
14.54500, 44.0
14.56000, 45.0
14.57500, 48.0
14.59000, 43.0
14.60500, 43.0
14.62000, 45.0
14.63500, 45.0
14.65000, 43.0
14.66500, 52.0
14.68000, 54.0
14.69500, 47.0
14.71000, 41.0
14.72500, 51.0
14.74000, 47.0
14.75500, 43.0
14.77000, 36.0
14.78500, 44.0
14.80000, 42.0
14.81500, 39.0
14.83000, 47.0
14.84500, 42.0
14.86000, 43.0
14.87500, 39.0
14.89000, 42.0
14.90500, 47.0
14.92000, 34.0
14.93500, 39.0
14.95000, 39.0
14.96500, 40.0
14.98000, 37.0
14.99500, 38.0
15.01000, 34.0
15.02500, 45.0
15.04000, 42.0
15.05500, 34.0
15.07000, 35.0
15.08500, 32.0
15.10000, 37.0
15.11500, 38.0
15.13000, 43.0
15.14500, 32.0
15.16000, 37.0
15.17500, 51.0
15.19000, 44.0
15.20500, 44.0
15.22000, 36.0
15.23500, 33.0
15.25000, 39.0
15.26500, 45.0
15.28000, 38.0
15.29500, 34.0
15.31000, 37.0
15.32500, 35.0
15.34000, 43.0
15.35500, 25.0
15.37000, 30.0
15.38500, 38.0
15.40000, 35.0
15.41500, 35.0
15.43000, 28.0
15.44500, 28.0
15.46000, 32.0
15.47500, 31.0
15.49000, 32.0
15.50500, 33.0
15.52000, 33.0
15.53500, 22.0
15.55000, 35.0
15.56500, 36.0
15.58000, 29.0
15.59500, 27.0
15.61000, 35.0
15.62500, 36.0
15.64000, 23.0
15.65500, 32.0
15.67000, 32.0
15.68500, 28.0
15.70000, 33.0
15.71500, 24.0
15.73000, 37.0
15.74500, 27.0
15.76000, 31.0
15.77500, 26.0
15.79000, 34.0
15.80500, 26.0
15.82000, 29.0
15.83500, 34.0
15.85000, 21.0
15.86500, 36.0
15.88000, 28.0
15.89500, 24.0
15.91000, 29.0
15.92500, 35.0
15.94000, 19.0
15.95500, 30.0
15.97000, 28.0
15.98500, 26.0
16.00000, 25.0
16.01500, 30.0
16.03000, 29.0
16.04500, 32.0
16.06000, 23.0
16.07500, 35.0
16.09000, 29.0
16.10500, 21.0
16.12000, 33.0
16.13500, 24.0
16.15000, 28.0
16.16500, 33.0
16.18000, 27.0
16.19500, 26.0
16.21000, 23.0
16.22500, 22.0
16.24000, 20.0
16.25500, 27.0
16.27000, 30.0
16.28500, 34.0
16.30000, 14.0
16.31500, 26.0
16.33000, 19.0
16.34500, 24.0
16.36000, 22.0
16.37500, 23.0
16.39000, 20.0
16.40500, 18.0
16.42000, 16.0
16.43500, 18.0
16.45000, 14.0
16.46500, 24.0
16.48000, 25.0
16.49500, 14.0
16.51000, 22.0
16.52500, 20.0
16.54000, 23.0
16.55500, 23.0
16.57000, 19.0
16.58500, 22.0
16.60000, 18.0
16.61500, 25.0
16.63000, 17.0
16.64500, 24.0
16.66000, 22.0
16.67500, 18.0
16.69000, 18.0
16.70500, 23.0
16.72000, 19.0
16.73500, 19.0
16.75000, 17.0
16.76500, 24.0
16.78000, 23.0
16.79500, 16.0
16.81000, 19.0
16.82500, 16.0
16.84000, 13.0
16.85500, 19.0
16.87000, 19.0
16.88500, 15.0
16.90000, 20.0
16.91500, 16.0
16.93000, 15.0
16.94500, 15.0
16.96000, 18.0
16.97500, 14.0
16.99000, 17.0
17.00500, 17.0
17.02000, 16.0
17.03500, 13.0
17.05000, 19.0
17.06500, 15.0
17.08000, 17.0
17.09500, 22.0
17.11000, 12.0
17.12500, 12.0
17.14000, 13.0
17.15500, 15.0
17.17000, 18.0
17.18500, 11.0
17.20000, 17.0
17.21500, 15.0
17.23000, 19.0
17.24500, 16.0
17.26000, 10.0
17.27500, 15.0
17.29000, 23.0
17.30500, 13.0
17.32000, 13.0
17.33500, 24.0
17.35000, 16.0
17.36500, 14.0
17.38000, 12.0
17.39500, 12.0
17.41000, 17.0
17.42500, 11.0
17.44000, 21.0
17.45500, 15.0
17.47000, 7.0
17.48500, 16.0
17.50000, 15.0
17.51500, 15.0
17.53000, 12.0
17.54500, 19.0
17.56000, 9.0
17.57500, 13.0
17.59000, 17.0
17.60500, 10.0
17.62000, 4.0
17.63500, 12.0
17.65000, 8.0
17.66500, 9.0
17.68000, 18.0
17.69500, 11.0
17.71000, 12.0
17.72500, 13.0
17.74000, 10.0
17.75500, 13.0
17.77000, 11.0
17.78500, 12.0
17.80000, 18.0
17.81500, 11.0
17.83000, 9.0
17.84500, 10.0
17.86000, 11.0
17.87500, 14.0
17.89000, 13.0
17.90500, 12.0
17.92000, 14.0
17.93500, 13.0
17.95000, 12.0
17.96500, 10.0
17.98000, 12.0
17.99500, 12.0
18.01000, 6.0
18.02500, 8.0
18.04000, 8.0
18.05500, 7.0
18.07000, 5.0
18.08500, 12.0
18.10000, 11.0
18.11500, 14.0
18.13000, 10.0
18.14500, 11.0
18.16000, 4.0
18.17500, 12.0
18.19000, 8.0
18.20500, 7.0
18.22000, 8.0
18.23500, 14.0
18.25000, 13.0
18.26500, 5.0
18.28000, 4.0
18.29500, 7.0
18.31000, 14.0
18.32500, 10.0
18.34000, 6.0
18.35500, 9.0
18.37000, 10.0
18.38500, 7.0
18.40000, 9.0
18.41500, 9.0
18.43000, 5.0
18.44500, 15.0
18.46000, 6.0
18.47500, 9.0
18.49000, 7.0
18.50500, 9.0
18.52000, 12.0
18.53500, 6.0
18.55000, 4.0
18.56500, 7.0
18.58000, 9.0
18.59500, 6.0
18.61000, 9.0
18.62500, 7.0
18.64000, 6.0
18.65500, 6.0
18.67000, 8.0
18.68500, 8.0
18.70000, 7.0
18.71500, 7.0
18.73000, 3.0
18.74500, 4.0
18.76000, 7.0
18.77500, 10.0
18.79000, 4.0
18.80500, 3.0
18.82000, 11.0
18.83500, 5.0
18.85000, 4.0
18.86500, 2.0
18.88000, 5.0
18.89500, 5.0
18.91000, 5.0
18.92500, 7.0
18.94000, 7.0
18.95500, 8.0
18.97000, 6.0
18.98500, 6.0
19.00000, 2.0
19.01500, 4.0
19.03000, 2.0
19.04500, 4.0
19.06000, 3.0
19.07500, 7.0
19.09000, 4.0
19.10500, 6.0
19.12000, 9.0
19.13500, 6.0
19.15000, 1.0
19.16500, 5.0
19.18000, 4.0
19.19500, 3.0
19.21000, 3.0
19.22500, 4.0
19.24000, 3.0
19.25500, 2.0
19.27000, 5.0
19.28500, 3.0
19.30000, 3.0
19.31500, 5.0
19.33000, 2.0
19.34500, 2.0
19.36000, 1.0
19.37500, 3.0
19.39000, 6.0
19.40500, 0.0
19.42000, 2.0
19.43500, 5.0
19.45000, 3.0
19.46500, 3.0
19.48000, 5.0
19.49500, 4.0
19.51000, 2.0
19.52500, 2.0
19.54000, 1.0
19.55500, 2.0
19.57000, 4.0
19.58500, 3.0
19.60000, 2.0
19.61500, 2.0
19.63000, 1.0
19.64500, 5.0
19.66000, 8.0
19.67500, 4.0
19.69000, 1.0
19.70500, 2.0
19.72000, 2.0
19.73500, 0.0
19.75000, 3.0
19.76500, 2.0
19.78000, 0.0
19.79500, 0.0
19.81000, 1.0
19.82500, 3.0
19.84000, 2.0
19.85500, 2.0
19.87000, 2.0
19.88500, 3.0
19.90000, 0.0
19.91500, 2.0
19.93000, 2.0
19.94500, 2.0
19.96000, 1.0
19.97500, 0.0
19.99000, 3.0
20.00500, 1.0
20.02000, 3.0
20.03500, 1.0
20.05000, 0.0
20.06500, 2.0
20.08000, 0.0
20.09500, 1.0
20.11000, 1.0
20.12500, 3.0
20.14000, 2.0
20.15500, 1.0
20.17000, 2.0
20.18500, 0.0
20.20000, 0.0
20.21500, 2.0
20.23000, 2.0
20.24500, 0.0
20.26000, 0.0
20.27500, 1.0
#ENDOFDATA   :