File: dat/msa/Si-Cal-20kV/Si-20kV-S4-P4-2K.msa
#FORMAT      : EMSA/MAS Spectral Data File
#VERSION     : 1.0
#TITLE       : Si-20kV-S4-P4-2K
#DATE        : 16-SEP-2016
#TIME        : 11:14
#OWNER       : John Minter
#NPOINTS     : 2048.0
#NCOLUMNS    : 1.0
#XUNITS      : keV
#YUNITS      : counts
#DATATYPE    : XY
#XPERCHAN    : 0.005
#OFFSET      : -0.1
#SIGNALTYPE  : EDS
#CHOFFSET    : 20.0
#LIVETIME    : 100.0
#REALTIME    : 117.332
#BEAMKV      : 20.0
#PROBECUR    : 0.40
#MAGCAM      : 35000.0
#XTILTSTGE   : 0.0
#AZIMANGLE   : 0.0
#ELEVANGLE   : 35.0
#XPOSITION mm: 1.6870
#YPOSITION mm: -1.7090
#ZPOSITION mm: 4.7660
##OXINSTPT   : 4
##OXINSTSTROB: 48.02
##OXINSTELEMS: 14,6,8
##OXINSTLABEL: 14, 1.740, Si
##OXINSTLABEL: 6, 0.277, C
##OXINSTLABEL: 8, 0.525, O
#SPECTRUM    : Spectral Data Starts Here
-0.10000, 0.0
-0.09000, 0.0
-0.08000, 0.0
-0.07000, 1.0
-0.06000, 2.0
-0.05000, 20.0
-0.04000, 61.0
-0.03000, 232.0
-0.02000, 505.0
-0.01000, 860.0
0.00000, 1333.0
0.01000, 1634.0
0.02000, 1956.0
0.03000, 2131.0
0.04000, 2158.0
0.05000, 2067.0
0.06000, 1657.0
0.07000, 1099.0
0.08000, 776.0
0.09000, 658.0
0.10000, 638.0
0.11000, 512.0
0.12000, 396.0
0.13000, 253.0
0.14000, 154.0
0.15000, 90.0
0.16000, 75.0
0.17000, 67.0
0.18000, 55.0
0.19000, 53.0
0.20000, 52.0
0.21000, 52.0
0.22000, 52.0
0.23000, 75.0
0.24000, 97.0
0.25000, 118.0
0.26000, 135.0
0.27000, 150.0
0.28000, 155.0
0.29000, 122.0
0.30000, 98.0
0.31000, 77.0
0.32000, 56.0
0.33000, 54.0
0.34000, 48.0
0.35000, 67.0
0.36000, 64.0
0.37000, 70.0
0.38000, 74.0
0.39000, 64.0
0.40000, 84.0
0.41000, 83.0
0.42000, 93.0
0.43000, 103.0
0.44000, 111.0
0.45000, 111.0
0.46000, 133.0
0.47000, 143.0
0.48000, 142.0
0.49000, 168.0
0.50000, 183.0
0.51000, 196.0
0.52000, 194.0
0.53000, 187.0
0.54000, 227.0
0.55000, 187.0
0.56000, 185.0
0.57000, 165.0
0.58000, 162.0
0.59000, 187.0
0.60000, 167.0
0.61000, 196.0
0.62000, 200.0
0.63000, 222.0
0.64000, 216.0
0.65000, 223.0
0.66000, 229.0
0.67000, 260.0
0.68000, 234.0
0.69000, 268.0
0.70000, 289.0
0.71000, 281.0
0.72000, 286.0
0.73000, 291.0
0.74000, 306.0
0.75000, 329.0
0.76000, 350.0
0.77000, 341.0
0.78000, 346.0
0.79000, 347.0
0.80000, 364.0
0.81000, 389.0
0.82000, 373.0
0.83000, 375.0
0.84000, 411.0
0.85000, 397.0
0.86000, 424.0
0.87000, 412.0
0.88000, 418.0
0.89000, 447.0
0.90000, 431.0
0.91000, 453.0
0.92000, 451.0
0.93000, 483.0
0.94000, 485.0
0.95000, 488.0
0.96000, 493.0
0.97000, 491.0
0.98000, 503.0
0.99000, 516.0
1.00000, 527.0
1.01000, 501.0
1.02000, 529.0
1.03000, 563.0
1.04000, 528.0
1.05000, 537.0
1.06000, 520.0
1.07000, 550.0
1.08000, 559.0
1.09000, 541.0
1.10000, 539.0
1.11000, 565.0
1.12000, 530.0
1.13000, 558.0
1.14000, 570.0
1.15000, 548.0
1.16000, 567.0
1.17000, 592.0
1.18000, 580.0
1.19000, 615.0
1.20000, 626.0
1.21000, 574.0
1.22000, 584.0
1.23000, 602.0
1.24000, 586.0
1.25000, 601.0
1.26000, 602.0
1.27000, 608.0
1.28000, 613.0
1.29000, 603.0
1.30000, 606.0
1.31000, 619.0
1.32000, 597.0
1.33000, 624.0
1.34000, 653.0
1.35000, 621.0
1.36000, 667.0
1.37000, 602.0
1.38000, 643.0
1.39000, 676.0
1.40000, 643.0
1.41000, 676.0
1.42000, 723.0
1.43000, 703.0
1.44000, 696.0
1.45000, 743.0
1.46000, 761.0
1.47000, 771.0
1.48000, 814.0
1.49000, 809.0
1.50000, 789.0
1.51000, 829.0
1.52000, 891.0
1.53000, 899.0
1.54000, 892.0
1.55000, 909.0
1.56000, 897.0
1.57000, 919.0
1.58000, 901.0
1.59000, 938.0
1.60000, 920.0
1.61000, 936.0
1.62000, 1012.0
1.63000, 1263.0
1.64000, 1914.0
1.65000, 3234.0
1.66000, 5913.0
1.67000, 10829.0
1.68000, 18955.0
1.69000, 30343.0
1.70000, 45127.0
1.71000, 62050.0
1.72000, 78536.0
1.73000, 91002.0
1.74000, 96727.0
1.75000, 95382.0
1.76000, 86063.0
1.77000, 71898.0
1.78000, 55183.0
1.79000, 39613.0
1.80000, 27002.0
1.81000, 17757.0
1.82000, 11765.0
1.83000, 8159.0
1.84000, 6004.0
1.85000, 4651.0
1.86000, 3579.0
1.87000, 2786.0
1.88000, 2096.0
1.89000, 1414.0
1.90000, 956.0
1.91000, 626.0
1.92000, 404.0
1.93000, 269.0
1.94000, 209.0
1.95000, 174.0
1.96000, 134.0
1.97000, 139.0
1.98000, 130.0
1.99000, 146.0
2.00000, 142.0
2.01000, 142.0
2.02000, 135.0
2.03000, 143.0
2.04000, 143.0
2.05000, 145.0
2.06000, 133.0
2.07000, 152.0
2.08000, 138.0
2.09000, 149.0
2.10000, 153.0
2.11000, 138.0
2.12000, 143.0
2.13000, 142.0
2.14000, 139.0
2.15000, 142.0
2.16000, 149.0
2.17000, 134.0
2.18000, 155.0
2.19000, 143.0
2.20000, 160.0
2.21000, 139.0
2.22000, 152.0
2.23000, 139.0
2.24000, 159.0
2.25000, 164.0
2.26000, 147.0
2.27000, 133.0
2.28000, 165.0
2.29000, 149.0
2.30000, 149.0
2.31000, 145.0
2.32000, 149.0
2.33000, 138.0
2.34000, 155.0
2.35000, 150.0
2.36000, 155.0
2.37000, 163.0
2.38000, 159.0
2.39000, 162.0
2.40000, 158.0
2.41000, 167.0
2.42000, 186.0
2.43000, 166.0
2.44000, 165.0
2.45000, 171.0
2.46000, 154.0
2.47000, 163.0
2.48000, 176.0
2.49000, 179.0
2.50000, 184.0
2.51000, 183.0
2.52000, 167.0
2.53000, 165.0
2.54000, 165.0
2.55000, 185.0
2.56000, 163.0
2.57000, 172.0
2.58000, 168.0
2.59000, 185.0
2.60000, 178.0
2.61000, 175.0
2.62000, 167.0
2.63000, 183.0
2.64000, 163.0
2.65000, 184.0
2.66000, 168.0
2.67000, 178.0
2.68000, 172.0
2.69000, 188.0
2.70000, 175.0
2.71000, 187.0
2.72000, 169.0
2.73000, 173.0
2.74000, 189.0
2.75000, 158.0
2.76000, 173.0
2.77000, 183.0
2.78000, 180.0
2.79000, 190.0
2.80000, 169.0
2.81000, 191.0
2.82000, 184.0
2.83000, 182.0
2.84000, 185.0
2.85000, 160.0
2.86000, 167.0
2.87000, 191.0
2.88000, 174.0
2.89000, 174.0
2.90000, 191.0
2.91000, 178.0
2.92000, 175.0
2.93000, 182.0
2.94000, 198.0
2.95000, 182.0
2.96000, 188.0
2.97000, 179.0
2.98000, 195.0
2.99000, 183.0
3.00000, 186.0
3.01000, 192.0
3.02000, 178.0
3.03000, 181.0
3.04000, 175.0
3.05000, 185.0
3.06000, 190.0
3.07000, 177.0
3.08000, 180.0
3.09000, 173.0
3.10000, 188.0
3.11000, 184.0
3.12000, 166.0
3.13000, 170.0
3.14000, 180.0
3.15000, 175.0
3.16000, 184.0
3.17000, 193.0
3.18000, 189.0
3.19000, 177.0
3.20000, 201.0
3.21000, 177.0
3.22000, 182.0
3.23000, 183.0
3.24000, 190.0
3.25000, 188.0
3.26000, 180.0
3.27000, 185.0
3.28000, 185.0
3.29000, 184.0
3.30000, 192.0
3.31000, 172.0
3.32000, 186.0
3.33000, 176.0
3.34000, 185.0
3.35000, 198.0
3.36000, 185.0
3.37000, 188.0
3.38000, 218.0
3.39000, 214.0
3.40000, 240.0
3.41000, 275.0
3.42000, 329.0
3.43000, 391.0
3.44000, 495.0
3.45000, 519.0
3.46000, 605.0
3.47000, 664.0
3.48000, 667.0
3.49000, 654.0
3.50000, 664.0
3.51000, 620.0
3.52000, 552.0
3.53000, 509.0
3.54000, 437.0
3.55000, 395.0
3.56000, 331.0
3.57000, 297.0
3.58000, 256.0
3.59000, 240.0
3.60000, 236.0
3.61000, 201.0
3.62000, 179.0
3.63000, 185.0
3.64000, 177.0
3.65000, 201.0
3.66000, 166.0
3.67000, 169.0
3.68000, 174.0
3.69000, 162.0
3.70000, 175.0
3.71000, 169.0
3.72000, 160.0
3.73000, 160.0
3.74000, 168.0
3.75000, 158.0
3.76000, 166.0
3.77000, 169.0
3.78000, 171.0
3.79000, 171.0
3.80000, 157.0
3.81000, 149.0
3.82000, 170.0
3.83000, 151.0
3.84000, 153.0
3.85000, 162.0
3.86000, 155.0
3.87000, 146.0
3.88000, 154.0
3.89000, 162.0
3.90000, 163.0
3.91000, 168.0
3.92000, 156.0
3.93000, 153.0
3.94000, 157.0
3.95000, 148.0
3.96000, 163.0
3.97000, 147.0
3.98000, 152.0
3.99000, 144.0
4.00000, 139.0
4.01000, 153.0
4.02000, 158.0
4.03000, 151.0
4.04000, 141.0
4.05000, 153.0
4.06000, 157.0
4.07000, 148.0
4.08000, 158.0
4.09000, 142.0
4.10000, 153.0
4.11000, 155.0
4.12000, 141.0
4.13000, 153.0
4.14000, 134.0
4.15000, 146.0
4.16000, 147.0
4.17000, 154.0
4.18000, 167.0
4.19000, 157.0
4.20000, 139.0
4.21000, 154.0
4.22000, 145.0
4.23000, 133.0
4.24000, 144.0
4.25000, 152.0
4.26000, 153.0
4.27000, 144.0
4.28000, 142.0
4.29000, 124.0
4.30000, 128.0
4.31000, 142.0
4.32000, 158.0
4.33000, 143.0
4.34000, 141.0
4.35000, 141.0
4.36000, 133.0
4.37000, 155.0
4.38000, 145.0
4.39000, 132.0
4.40000, 137.0
4.41000, 136.0
4.42000, 120.0
4.43000, 133.0
4.44000, 143.0
4.45000, 140.0
4.46000, 130.0
4.47000, 139.0
4.48000, 136.0
4.49000, 142.0
4.50000, 155.0
4.51000, 128.0
4.52000, 136.0
4.53000, 148.0
4.54000, 129.0
4.55000, 139.0
4.56000, 143.0
4.57000, 132.0
4.58000, 123.0
4.59000, 139.0
4.60000, 141.0
4.61000, 144.0
4.62000, 140.0
4.63000, 141.0
4.64000, 136.0
4.65000, 130.0
4.66000, 130.0
4.67000, 133.0
4.68000, 126.0
4.69000, 119.0
4.70000, 146.0
4.71000, 136.0
4.72000, 134.0
4.73000, 130.0
4.74000, 140.0
4.75000, 114.0
4.76000, 118.0
4.77000, 127.0
4.78000, 127.0
4.79000, 136.0
4.80000, 148.0
4.81000, 134.0
4.82000, 125.0
4.83000, 126.0
4.84000, 144.0
4.85000, 138.0
4.86000, 153.0
4.87000, 99.0
4.88000, 109.0
4.89000, 128.0
4.90000, 129.0
4.91000, 137.0
4.92000, 114.0
4.93000, 139.0
4.94000, 120.0
4.95000, 113.0
4.96000, 124.0
4.97000, 124.0
4.98000, 121.0
4.99000, 126.0
5.00000, 121.0
5.01000, 143.0
5.02000, 123.0
5.03000, 133.0
5.04000, 130.0
5.05000, 131.0
5.06000, 122.0
5.07000, 139.0
5.08000, 135.0
5.09000, 122.0
5.10000, 108.0
5.11000, 106.0
5.12000, 111.0
5.13000, 122.0
5.14000, 119.0
5.15000, 122.0
5.16000, 100.0
5.17000, 114.0
5.18000, 109.0
5.19000, 115.0
5.20000, 114.0
5.21000, 126.0
5.22000, 99.0
5.23000, 119.0
5.24000, 139.0
5.25000, 124.0
5.26000, 127.0
5.27000, 108.0
5.28000, 116.0
5.29000, 105.0
5.30000, 125.0
5.31000, 117.0
5.32000, 119.0
5.33000, 114.0
5.34000, 123.0
5.35000, 101.0
5.36000, 127.0
5.37000, 99.0
5.38000, 97.0
5.39000, 110.0
5.40000, 112.0
5.41000, 121.0
5.42000, 110.0
5.43000, 121.0
5.44000, 110.0
5.45000, 112.0
5.46000, 101.0
5.47000, 111.0
5.48000, 101.0
5.49000, 133.0
5.50000, 108.0
5.51000, 118.0
5.52000, 109.0
5.53000, 107.0
5.54000, 115.0
5.55000, 128.0
5.56000, 106.0
5.57000, 99.0
5.58000, 120.0
5.59000, 106.0
5.60000, 103.0
5.61000, 95.0
5.62000, 103.0
5.63000, 109.0
5.64000, 97.0
5.65000, 97.0
5.66000, 105.0
5.67000, 98.0
5.68000, 96.0
5.69000, 113.0
5.70000, 115.0
5.71000, 110.0
5.72000, 102.0
5.73000, 101.0
5.74000, 103.0
5.75000, 109.0
5.76000, 113.0
5.77000, 103.0
5.78000, 101.0
5.79000, 102.0
5.80000, 99.0
5.81000, 104.0
5.82000, 93.0
5.83000, 89.0
5.84000, 85.0
5.85000, 83.0
5.86000, 93.0
5.87000, 96.0
5.88000, 117.0
5.89000, 101.0
5.90000, 104.0
5.91000, 83.0
5.92000, 114.0
5.93000, 92.0
5.94000, 96.0
5.95000, 103.0
5.96000, 105.0
5.97000, 84.0
5.98000, 105.0
5.99000, 89.0
6.00000, 100.0
6.01000, 86.0
6.02000, 93.0
6.03000, 96.0
6.04000, 105.0
6.05000, 118.0
6.06000, 83.0
6.07000, 90.0
6.08000, 93.0
6.09000, 76.0
6.10000, 107.0
6.11000, 89.0
6.12000, 106.0
6.13000, 85.0
6.14000, 87.0
6.15000, 80.0
6.16000, 82.0
6.17000, 100.0
6.18000, 92.0
6.19000, 103.0
6.20000, 73.0
6.21000, 77.0
6.22000, 87.0
6.23000, 118.0
6.24000, 99.0
6.25000, 86.0
6.26000, 90.0
6.27000, 89.0
6.28000, 76.0
6.29000, 105.0
6.30000, 86.0
6.31000, 86.0
6.32000, 84.0
6.33000, 90.0
6.34000, 112.0
6.35000, 89.0
6.36000, 103.0
6.37000, 83.0
6.38000, 73.0
6.39000, 92.0
6.40000, 88.0
6.41000, 96.0
6.42000, 65.0
6.43000, 88.0
6.44000, 88.0
6.45000, 90.0
6.46000, 87.0
6.47000, 94.0
6.48000, 79.0
6.49000, 89.0
6.50000, 83.0
6.51000, 103.0
6.52000, 93.0
6.53000, 86.0
6.54000, 81.0
6.55000, 77.0
6.56000, 89.0
6.57000, 93.0
6.58000, 94.0
6.59000, 80.0
6.60000, 76.0
6.61000, 83.0
6.62000, 91.0
6.63000, 72.0
6.64000, 105.0
6.65000, 85.0
6.66000, 76.0
6.67000, 98.0
6.68000, 74.0
6.69000, 71.0
6.70000, 88.0
6.71000, 78.0
6.72000, 88.0
6.73000, 81.0
6.74000, 73.0
6.75000, 79.0
6.76000, 87.0
6.77000, 71.0
6.78000, 69.0
6.79000, 78.0
6.80000, 91.0
6.81000, 86.0
6.82000, 70.0
6.83000, 69.0
6.84000, 85.0
6.85000, 80.0
6.86000, 86.0
6.87000, 85.0
6.88000, 86.0
6.89000, 84.0
6.90000, 87.0
6.91000, 92.0
6.92000, 74.0
6.93000, 82.0
6.94000, 74.0
6.95000, 82.0
6.96000, 77.0
6.97000, 92.0
6.98000, 81.0
6.99000, 79.0
7.00000, 76.0
7.01000, 80.0
7.02000, 84.0
7.03000, 82.0
7.04000, 74.0
7.05000, 65.0
7.06000, 68.0
7.07000, 64.0
7.08000, 83.0
7.09000, 84.0
7.10000, 79.0
7.11000, 72.0
7.12000, 72.0
7.13000, 80.0
7.14000, 68.0
7.15000, 81.0
7.16000, 91.0
7.17000, 75.0
7.18000, 62.0
7.19000, 75.0
7.20000, 82.0
7.21000, 75.0
7.22000, 80.0
7.23000, 77.0
7.24000, 82.0
7.25000, 78.0
7.26000, 69.0
7.27000, 73.0
7.28000, 63.0
7.29000, 71.0
7.30000, 75.0
7.31000, 74.0
7.32000, 72.0
7.33000, 81.0
7.34000, 62.0
7.35000, 77.0
7.36000, 67.0
7.37000, 63.0
7.38000, 86.0
7.39000, 66.0
7.40000, 76.0
7.41000, 62.0
7.42000, 83.0
7.43000, 74.0
7.44000, 66.0
7.45000, 71.0
7.46000, 69.0
7.47000, 73.0
7.48000, 61.0
7.49000, 67.0
7.50000, 71.0
7.51000, 65.0
7.52000, 68.0
7.53000, 64.0
7.54000, 68.0
7.55000, 67.0
7.56000, 67.0
7.57000, 62.0
7.58000, 71.0
7.59000, 59.0
7.60000, 62.0
7.61000, 71.0
7.62000, 57.0
7.63000, 73.0
7.64000, 74.0
7.65000, 86.0
7.66000, 76.0
7.67000, 67.0
7.68000, 72.0
7.69000, 62.0
7.70000, 61.0
7.71000, 69.0
7.72000, 80.0
7.73000, 64.0
7.74000, 62.0
7.75000, 76.0
7.76000, 61.0
7.77000, 67.0
7.78000, 66.0
7.79000, 71.0
7.80000, 70.0
7.81000, 66.0
7.82000, 73.0
7.83000, 65.0
7.84000, 53.0
7.85000, 60.0
7.86000, 71.0
7.87000, 65.0
7.88000, 64.0
7.89000, 63.0
7.90000, 64.0
7.91000, 54.0
7.92000, 55.0
7.93000, 71.0
7.94000, 62.0
7.95000, 69.0
7.96000, 80.0
7.97000, 70.0
7.98000, 67.0
7.99000, 57.0
8.00000, 71.0
8.01000, 62.0
8.02000, 59.0
8.03000, 57.0
8.04000, 59.0
8.05000, 60.0
8.06000, 54.0
8.07000, 58.0
8.08000, 70.0
8.09000, 70.0
8.10000, 62.0
8.11000, 62.0
8.12000, 60.0
8.13000, 62.0
8.14000, 65.0
8.15000, 70.0
8.16000, 49.0
8.17000, 63.0
8.18000, 60.0
8.19000, 50.0
8.20000, 67.0
8.21000, 57.0
8.22000, 57.0
8.23000, 58.0
8.24000, 59.0
8.25000, 70.0
8.26000, 53.0
8.27000, 46.0
8.28000, 65.0
8.29000, 68.0
8.30000, 62.0
8.31000, 49.0
8.32000, 56.0
8.33000, 60.0
8.34000, 61.0
8.35000, 54.0
8.36000, 65.0
8.37000, 63.0
8.38000, 69.0
8.39000, 53.0
8.40000, 56.0
8.41000, 54.0
8.42000, 47.0
8.43000, 52.0
8.44000, 59.0
8.45000, 57.0
8.46000, 52.0
8.47000, 57.0
8.48000, 56.0
8.49000, 52.0
8.50000, 61.0
8.51000, 66.0
8.52000, 61.0
8.53000, 56.0
8.54000, 63.0
8.55000, 48.0
8.56000, 58.0
8.57000, 50.0
8.58000, 55.0
8.59000, 55.0
8.60000, 42.0
8.61000, 55.0
8.62000, 54.0
8.63000, 48.0
8.64000, 57.0
8.65000, 57.0
8.66000, 42.0
8.67000, 51.0
8.68000, 49.0
8.69000, 51.0
8.70000, 53.0
8.71000, 55.0
8.72000, 48.0
8.73000, 54.0
8.74000, 41.0
8.75000, 45.0
8.76000, 42.0
8.77000, 46.0
8.78000, 45.0
8.79000, 55.0
8.80000, 48.0
8.81000, 44.0
8.82000, 46.0
8.83000, 49.0
8.84000, 50.0
8.85000, 47.0
8.86000, 51.0
8.87000, 51.0
8.88000, 46.0
8.89000, 50.0
8.90000, 53.0
8.91000, 49.0
8.92000, 46.0
8.93000, 50.0
8.94000, 52.0
8.95000, 40.0
8.96000, 46.0
8.97000, 46.0
8.98000, 52.0
8.99000, 50.0
9.00000, 51.0
9.01000, 48.0
9.02000, 42.0
9.03000, 50.0
9.04000, 48.0
9.05000, 46.0
9.06000, 51.0
9.07000, 52.0
9.08000, 46.0
9.09000, 46.0
9.10000, 57.0
9.11000, 53.0
9.12000, 58.0
9.13000, 42.0
9.14000, 39.0
9.15000, 52.0
9.16000, 48.0
9.17000, 52.0
9.18000, 48.0
9.19000, 50.0
9.20000, 45.0
9.21000, 47.0
9.22000, 49.0
9.23000, 54.0
9.24000, 48.0
9.25000, 53.0
9.26000, 46.0
9.27000, 54.0
9.28000, 46.0
9.29000, 44.0
9.30000, 53.0
9.31000, 41.0
9.32000, 43.0
9.33000, 35.0
9.34000, 48.0
9.35000, 37.0
9.36000, 40.0
9.37000, 39.0
9.38000, 40.0
9.39000, 53.0
9.40000, 43.0
9.41000, 50.0
9.42000, 45.0
9.43000, 49.0
9.44000, 39.0
9.45000, 47.0
9.46000, 43.0
9.47000, 44.0
9.48000, 46.0
9.49000, 46.0
9.50000, 44.0
9.51000, 39.0
9.52000, 38.0
9.53000, 49.0
9.54000, 44.0
9.55000, 57.0
9.56000, 46.0
9.57000, 39.0
9.58000, 45.0
9.59000, 40.0
9.60000, 44.0
9.61000, 39.0
9.62000, 33.0
9.63000, 42.0
9.64000, 47.0
9.65000, 43.0
9.66000, 50.0
9.67000, 42.0
9.68000, 42.0
9.69000, 35.0
9.70000, 40.0
9.71000, 41.0
9.72000, 43.0
9.73000, 39.0
9.74000, 42.0
9.75000, 49.0
9.76000, 42.0
9.77000, 40.0
9.78000, 53.0
9.79000, 35.0
9.80000, 37.0
9.81000, 40.0
9.82000, 41.0
9.83000, 35.0
9.84000, 30.0
9.85000, 42.0
9.86000, 40.0
9.87000, 34.0
9.88000, 34.0
9.89000, 38.0
9.90000, 36.0
9.91000, 38.0
9.92000, 37.0
9.93000, 40.0
9.94000, 35.0
9.95000, 38.0
9.96000, 38.0
9.97000, 38.0
9.98000, 36.0
9.99000, 40.0
10.00000, 35.0
10.01000, 36.0
10.02000, 33.0
10.03000, 46.0
10.04000, 40.0
10.05000, 38.0
10.06000, 40.0
10.07000, 34.0
10.08000, 47.0
10.09000, 34.0
10.10000, 30.0
10.11000, 33.0
10.12000, 41.0
10.13000, 38.0
10.13500, 37.0
#ENDOFDATA   :