File: dat/msa/Si-Cal-20kV/Si-20kV-S4-P4-4K.msa
#FORMAT      : EMSA/MAS Spectral Data File
#VERSION     : 1.0
#TITLE       : Si-20kV-S4-P4-4K
#DATE        : 16-SEP-2016
#TIME        : 11:16
#OWNER       : John Minter
#NPOINTS     : 4096.0
#NCOLUMNS    : 1.0
#XUNITS      : keV
#YUNITS      : counts
#DATATYPE    : XY
#XPERCHAN    : 0.005
#OFFSET      : -0.2
#SIGNALTYPE  : EDS
#CHOFFSET    : 40.0
#LIVETIME    : 100.0
#REALTIME    : 117.29
#BEAMKV      : 20.0
#PROBECUR    : 0.40
#MAGCAM      : 35000.0
#XTILTSTGE   : 0.0
#AZIMANGLE   : 0.0
#ELEVANGLE   : 35.0
#XPOSITION mm: 1.6870
#YPOSITION mm: -1.6900
#ZPOSITION mm: 4.7660
##OXINSTPT   : 4
##OXINSTSTROB: 47.95
##OXINSTELEMS: 14,6
##OXINSTLABEL: 14, 1.740, Si
##OXINSTLABEL: 6, 0.277, C
#SPECTRUM    : Spectral Data Starts Here
-0.20000, 0.0
-0.18500, 0.0
-0.17000, 0.0
-0.15500, 0.0
-0.14000, 0.0
-0.12500, 0.0
-0.11000, 0.0
-0.09500, 0.0
-0.08000, 0.0
-0.06500, 0.0
-0.05000, 23.0
-0.03500, 135.0
-0.02000, 488.0
-0.00500, 1108.0
0.01000, 1611.0
0.02500, 2046.0
0.04000, 2167.0
0.05500, 1841.0
0.07000, 1097.0
0.08500, 681.0
0.10000, 628.0
0.11500, 441.0
0.13000, 266.0
0.14500, 113.0
0.16000, 60.0
0.17500, 46.0
0.19000, 41.0
0.20500, 59.0
0.22000, 68.0
0.23500, 70.0
0.25000, 106.0
0.26500, 150.0
0.28000, 149.0
0.29500, 118.0
0.31000, 86.0
0.32500, 66.0
0.34000, 66.0
0.35500, 63.0
0.37000, 61.0
0.38500, 72.0
0.40000, 87.0
0.41500, 78.0
0.43000, 107.0
0.44500, 109.0
0.46000, 112.0
0.47500, 147.0
0.49000, 182.0
0.50500, 196.0
0.52000, 184.0
0.53500, 175.0
0.55000, 162.0
0.56500, 164.0
0.58000, 170.0
0.59500, 178.0
0.61000, 163.0
0.62500, 223.0
0.64000, 209.0
0.65500, 243.0
0.67000, 257.0
0.68500, 236.0
0.70000, 277.0
0.71500, 304.0
0.73000, 309.0
0.74500, 303.0
0.76000, 327.0
0.77500, 319.0
0.79000, 382.0
0.80500, 375.0
0.82000, 384.0
0.83500, 423.0
0.85000, 423.0
0.86500, 414.0
0.88000, 427.0
0.89500, 415.0
0.91000, 433.0
0.92500, 475.0
0.94000, 485.0
0.95500, 503.0
0.97000, 490.0
0.98500, 474.0
1.00000, 532.0
1.01500, 527.0
1.03000, 479.0
1.04500, 511.0
1.06000, 554.0
1.07500, 535.0
1.09000, 536.0
1.10500, 547.0
1.12000, 543.0
1.13500, 582.0
1.15000, 520.0
1.16500, 594.0
1.18000, 561.0
1.19500, 594.0
1.21000, 568.0
1.22500, 587.0
1.24000, 595.0
1.25500, 585.0
1.27000, 602.0
1.28500, 600.0
1.30000, 563.0
1.31500, 605.0
1.33000, 653.0
1.34500, 591.0
1.36000, 637.0
1.37500, 678.0
1.39000, 659.0
1.40500, 662.0
1.42000, 698.0
1.43500, 751.0
1.45000, 726.0
1.46500, 806.0
1.48000, 765.0
1.49500, 819.0
1.51000, 829.0
1.52500, 900.0
1.54000, 893.0
1.55500, 892.0
1.57000, 905.0
1.58500, 989.0
1.60000, 893.0
1.61500, 938.0
1.63000, 1240.0
1.64500, 2411.0
1.66000, 6130.0
1.67500, 14557.0
1.69000, 30391.0
1.70500, 53823.0
1.72000, 78335.0
1.73500, 95195.0
1.75000, 95001.0
1.76500, 79617.0
1.78000, 55057.0
1.79500, 32669.0
1.81000, 17629.0
1.82500, 9657.0
1.84000, 6093.0
1.85500, 4057.0
1.87000, 2829.0
1.88500, 1744.0
1.90000, 951.0
1.91500, 487.0
1.93000, 256.0
1.94500, 186.0
1.96000, 136.0
1.97500, 121.0
1.99000, 144.0
2.00500, 128.0
2.02000, 134.0
2.03500, 151.0
2.05000, 122.0
2.06500, 136.0
2.08000, 140.0
2.09500, 132.0
2.11000, 155.0
2.12500, 133.0
2.14000, 143.0
2.15500, 136.0
2.17000, 143.0
2.18500, 164.0
2.20000, 161.0
2.21500, 125.0
2.23000, 158.0
2.24500, 149.0
2.26000, 166.0
2.27500, 169.0
2.29000, 161.0
2.30500, 170.0
2.32000, 173.0
2.33500, 167.0
2.35000, 162.0
2.36500, 152.0
2.38000, 168.0
2.39500, 145.0
2.41000, 182.0
2.42500, 167.0
2.44000, 187.0
2.45500, 166.0
2.47000, 190.0
2.48500, 163.0
2.50000, 183.0
2.51500, 161.0
2.53000, 176.0
2.54500, 177.0
2.56000, 170.0
2.57500, 184.0
2.59000, 171.0
2.60500, 168.0
2.62000, 173.0
2.63500, 184.0
2.65000, 174.0
2.66500, 169.0
2.68000, 195.0
2.69500, 173.0
2.71000, 167.0
2.72500, 194.0
2.74000, 179.0
2.75500, 195.0
2.77000, 188.0
2.78500, 184.0
2.80000, 176.0
2.81500, 184.0
2.83000, 174.0
2.84500, 177.0
2.86000, 189.0
2.87500, 189.0
2.89000, 190.0
2.90500, 175.0
2.92000, 190.0
2.93500, 175.0
2.95000, 196.0
2.96500, 168.0
2.98000, 187.0
2.99500, 181.0
3.01000, 192.0
3.02500, 174.0
3.04000, 180.0
3.05500, 185.0
3.07000, 173.0
3.08500, 173.0
3.10000, 175.0
3.11500, 174.0
3.13000, 195.0
3.14500, 187.0
3.16000, 188.0
3.17500, 199.0
3.19000, 179.0
3.20500, 180.0
3.22000, 190.0
3.23500, 167.0
3.25000, 175.0
3.26500, 166.0
3.28000, 184.0
3.29500, 177.0
3.31000, 186.0
3.32500, 183.0
3.34000, 175.0
3.35500, 199.0
3.37000, 194.0
3.38500, 231.0
3.40000, 262.0
3.41500, 326.0
3.43000, 398.0
3.44500, 491.0
3.46000, 582.0
3.47500, 675.0
3.49000, 674.0
3.50500, 643.0
3.52000, 557.0
3.53500, 476.0
3.55000, 374.0
3.56500, 318.0
3.58000, 264.0
3.59500, 246.0
3.61000, 205.0
3.62500, 198.0
3.64000, 182.0
3.65500, 162.0
3.67000, 167.0
3.68500, 168.0
3.70000, 172.0
3.71500, 187.0
3.73000, 169.0
3.74500, 156.0
3.76000, 174.0
3.77500, 158.0
3.79000, 146.0
3.80500, 154.0
3.82000, 146.0
3.83500, 158.0
3.85000, 161.0
3.86500, 154.0
3.88000, 159.0
3.89500, 157.0
3.91000, 160.0
3.92500, 162.0
3.94000, 152.0
3.95500, 163.0
3.97000, 164.0
3.98500, 143.0
4.00000, 152.0
4.01500, 141.0
4.03000, 152.0
4.04500, 152.0
4.06000, 163.0
4.07500, 141.0
4.09000, 143.0
4.10500, 153.0
4.12000, 139.0
4.13500, 156.0
4.15000, 152.0
4.16500, 164.0
4.18000, 138.0
4.19500, 143.0
4.21000, 143.0
4.22500, 159.0
4.24000, 157.0
4.25500, 149.0
4.27000, 143.0
4.28500, 144.0
4.30000, 137.0
4.31500, 149.0
4.33000, 154.0
4.34500, 146.0
4.36000, 144.0
4.37500, 149.0
4.39000, 145.0
4.40500, 136.0
4.42000, 126.0
4.43500, 140.0
4.45000, 132.0
4.46500, 134.0
4.48000, 140.0
4.49500, 122.0
4.51000, 138.0
4.52500, 149.0
4.54000, 137.0
4.55500, 136.0
4.57000, 118.0
4.58500, 135.0
4.60000, 130.0
4.61500, 143.0
4.63000, 123.0
4.64500, 148.0
4.66000, 128.0
4.67500, 139.0
4.69000, 128.0
4.70500, 128.0
4.72000, 132.0
4.73500, 131.0
4.75000, 139.0
4.76500, 141.0
4.78000, 132.0
4.79500, 120.0
4.81000, 135.0
4.82500, 128.0
4.84000, 130.0
4.85500, 126.0
4.87000, 123.0
4.88500, 127.0
4.90000, 136.0
4.91500, 122.0
4.93000, 110.0
4.94500, 125.0
4.96000, 128.0
4.97500, 118.0
4.99000, 110.0
5.00500, 113.0
5.02000, 120.0
5.03500, 123.0
5.05000, 121.0
5.06500, 125.0
5.08000, 122.0
5.09500, 121.0
5.11000, 110.0
5.12500, 118.0
5.14000, 106.0
5.15500, 110.0
5.17000, 103.0
5.18500, 130.0
5.20000, 121.0
5.21500, 126.0
5.23000, 114.0
5.24500, 112.0
5.26000, 124.0
5.27500, 127.0
5.29000, 125.0
5.30500, 113.0
5.32000, 102.0
5.33500, 121.0
5.35000, 107.0
5.36500, 118.0
5.38000, 111.0
5.39500, 100.0
5.41000, 112.0
5.42500, 100.0
5.44000, 113.0
5.45500, 112.0
5.47000, 106.0
5.48500, 108.0
5.50000, 112.0
5.51500, 110.0
5.53000, 113.0
5.54500, 114.0
5.56000, 104.0
5.57500, 113.0
5.59000, 95.0
5.60500, 115.0
5.62000, 102.0
5.63500, 108.0
5.65000, 106.0
5.66500, 102.0
5.68000, 91.0
5.69500, 101.0
5.71000, 100.0
5.72500, 99.0
5.74000, 91.0
5.75500, 98.0
5.77000, 95.0
5.78500, 112.0
5.80000, 100.0
5.81500, 91.0
5.83000, 99.0
5.84500, 101.0
5.86000, 93.0
5.87500, 99.0
5.89000, 101.0
5.90500, 103.0
5.92000, 111.0
5.93500, 109.0
5.95000, 90.0
5.96500, 103.0
5.98000, 91.0
5.99500, 95.0
6.01000, 95.0
6.02500, 98.0
6.04000, 102.0
6.05500, 91.0
6.07000, 85.0
6.08500, 95.0
6.10000, 93.0
6.11500, 97.0
6.13000, 93.0
6.14500, 89.0
6.16000, 106.0
6.17500, 95.0
6.19000, 88.0
6.20500, 97.0
6.22000, 82.0
6.23500, 80.0
6.25000, 89.0
6.26500, 99.0
6.28000, 91.0
6.29500, 89.0
6.31000, 94.0
6.32500, 87.0
6.34000, 100.0
6.35500, 84.0
6.37000, 82.0
6.38500, 94.0
6.40000, 86.0
6.41500, 96.0
6.43000, 97.0
6.44500, 79.0
6.46000, 93.0
6.47500, 83.0
6.49000, 80.0
6.50500, 81.0
6.52000, 72.0
6.53500, 94.0
6.55000, 72.0
6.56500, 101.0
6.58000, 83.0
6.59500, 68.0
6.61000, 75.0
6.62500, 88.0
6.64000, 97.0
6.65500, 81.0
6.67000, 85.0
6.68500, 79.0
6.70000, 81.0
6.71500, 77.0
6.73000, 78.0
6.74500, 80.0
6.76000, 84.0
6.77500, 87.0
6.79000, 80.0
6.80500, 91.0
6.82000, 82.0
6.83500, 95.0
6.85000, 76.0
6.86500, 87.0
6.88000, 63.0
6.89500, 82.0
6.91000, 84.0
6.92500, 78.0
6.94000, 80.0
6.95500, 79.0
6.97000, 60.0
6.98500, 67.0
7.00000, 75.0
7.01500, 81.0
7.03000, 75.0
7.04500, 76.0
7.06000, 68.0
7.07500, 59.0
7.09000, 78.0
7.10500, 78.0
7.12000, 78.0
7.13500, 71.0
7.15000, 69.0
7.16500, 90.0
7.18000, 64.0
7.19500, 70.0
7.21000, 88.0
7.22500, 72.0
7.24000, 80.0
7.25500, 80.0
7.27000, 70.0
7.28500, 73.0
7.30000, 67.0
7.31500, 80.0
7.33000, 77.0
7.34500, 59.0
7.36000, 82.0
7.37500, 71.0
7.39000, 74.0
7.40500, 60.0
7.42000, 84.0
7.43500, 75.0
7.45000, 78.0
7.46500, 76.0
7.48000, 76.0
7.49500, 73.0
7.51000, 71.0
7.52500, 60.0
7.54000, 70.0
7.55500, 62.0
7.57000, 61.0
7.58500, 74.0
7.60000, 57.0
7.61500, 72.0
7.63000, 59.0
7.64500, 64.0
7.66000, 52.0
7.67500, 65.0
7.69000, 58.0
7.70500, 72.0
7.72000, 62.0
7.73500, 60.0
7.75000, 68.0
7.76500, 56.0
7.78000, 66.0
7.79500, 64.0
7.81000, 73.0
7.82500, 65.0
7.84000, 75.0
7.85500, 64.0
7.87000, 61.0
7.88500, 64.0
7.90000, 60.0
7.91500, 66.0
7.93000, 78.0
7.94500, 57.0
7.96000, 63.0
7.97500, 58.0
7.99000, 58.0
8.00500, 57.0
8.02000, 51.0
8.03500, 62.0
8.05000, 56.0
8.06500, 63.0
8.08000, 84.0
8.09500, 60.0
8.11000, 75.0
8.12500, 54.0
8.14000, 59.0
8.15500, 60.0
8.17000, 54.0
8.18500, 67.0
8.20000, 67.0
8.21500, 68.0
8.23000, 58.0
8.24500, 63.0
8.26000, 54.0
8.27500, 53.0
8.29000, 58.0
8.30500, 55.0
8.32000, 51.0
8.33500, 49.0
8.35000, 59.0
8.36500, 43.0
8.38000, 52.0
8.39500, 52.0
8.41000, 51.0
8.42500, 70.0
8.44000, 46.0
8.45500, 55.0
8.47000, 49.0
8.48500, 63.0
8.50000, 53.0
8.51500, 62.0
8.53000, 62.0
8.54500, 46.0
8.56000, 57.0
8.57500, 65.0
8.59000, 49.0
8.60500, 65.0
8.62000, 52.0
8.63500, 41.0
8.65000, 47.0
8.66500, 55.0
8.68000, 42.0
8.69500, 50.0
8.71000, 66.0
8.72500, 46.0
8.74000, 51.0
8.75500, 46.0
8.77000, 36.0
8.78500, 58.0
8.80000, 57.0
8.81500, 53.0
8.83000, 47.0
8.84500, 45.0
8.86000, 55.0
8.87500, 51.0
8.89000, 42.0
8.90500, 44.0
8.92000, 43.0
8.93500, 57.0
8.95000, 33.0
8.96500, 60.0
8.98000, 61.0
8.99500, 49.0
9.01000, 54.0
9.02500, 47.0
9.04000, 45.0
9.05500, 39.0
9.07000, 53.0
9.08500, 42.0
9.10000, 54.0
9.11500, 49.0
9.13000, 48.0
9.14500, 49.0
9.16000, 42.0
9.17500, 54.0
9.19000, 52.0
9.20500, 26.0
9.22000, 47.0
9.23500, 49.0
9.25000, 60.0
9.26500, 51.0
9.28000, 48.0
9.29500, 53.0
9.31000, 45.0
9.32500, 43.0
9.34000, 56.0
9.35500, 48.0
9.37000, 53.0
9.38500, 48.0
9.40000, 48.0
9.41500, 39.0
9.43000, 45.0
9.44500, 42.0
9.46000, 38.0
9.47500, 54.0
9.49000, 44.0
9.50500, 44.0
9.52000, 44.0
9.53500, 50.0
9.55000, 46.0
9.56500, 40.0
9.58000, 49.0
9.59500, 49.0
9.61000, 43.0
9.62500, 44.0
9.64000, 42.0
9.65500, 47.0
9.67000, 42.0
9.68500, 37.0
9.70000, 51.0
9.71500, 40.0
9.73000, 42.0
9.74500, 35.0
9.76000, 44.0
9.77500, 52.0
9.79000, 41.0
9.80500, 35.0
9.82000, 40.0
9.83500, 29.0
9.85000, 47.0
9.86500, 37.0
9.88000, 35.0
9.89500, 36.0
9.91000, 40.0
9.92500, 32.0
9.94000, 41.0
9.95500, 46.0
9.97000, 42.0
9.98500, 42.0
10.00000, 36.0
10.01500, 36.0
10.03000, 31.0
10.04500, 38.0
10.06000, 33.0
10.07500, 41.0
10.09000, 36.0
10.10500, 39.0
10.12000, 35.0
10.13500, 36.0
10.15000, 38.0
10.16500, 36.0
10.18000, 34.0
10.19500, 40.0
10.21000, 46.0
10.22500, 31.0
10.24000, 35.0
10.25500, 40.0
10.27000, 32.0
10.28500, 30.0
10.30000, 28.0
10.31500, 39.0
10.33000, 34.0
10.34500, 39.0
10.36000, 42.0
10.37500, 35.0
10.39000, 34.0
10.40500, 41.0
10.42000, 38.0
10.43500, 30.0
10.45000, 35.0
10.46500, 31.0
10.48000, 29.0
10.49500, 42.0
10.51000, 32.0
10.52500, 33.0
10.54000, 31.0
10.55500, 29.0
10.57000, 36.0
10.58500, 28.0
10.60000, 31.0
10.61500, 27.0
10.63000, 34.0
10.64500, 46.0
10.66000, 32.0
10.67500, 41.0
10.69000, 24.0
10.70500, 31.0
10.72000, 34.0
10.73500, 31.0
10.75000, 29.0
10.76500, 27.0
10.78000, 33.0
10.79500, 26.0
10.81000, 27.0
10.82500, 29.0
10.84000, 30.0
10.85500, 31.0
10.87000, 31.0
10.88500, 29.0
10.90000, 25.0
10.91500, 26.0
10.93000, 30.0
10.94500, 22.0
10.96000, 28.0
10.97500, 27.0
10.99000, 27.0
11.00500, 38.0
11.02000, 34.0
11.03500, 29.0
11.05000, 32.0
11.06500, 32.0
11.08000, 36.0
11.09500, 20.0
11.11000, 30.0
11.12500, 31.0
11.14000, 36.0
11.15500, 27.0
11.17000, 28.0
11.18500, 21.0
11.20000, 31.0
11.21500, 25.0
11.23000, 30.0
11.24500, 34.0
11.26000, 24.0
11.27500, 29.0
11.29000, 36.0
11.30500, 26.0
11.32000, 25.0
11.33500, 26.0
11.35000, 18.0
11.36500, 29.0
11.38000, 21.0
11.39500, 31.0
11.41000, 26.0
11.42500, 28.0
11.44000, 31.0
11.45500, 29.0
11.47000, 23.0
11.48500, 28.0
11.50000, 23.0
11.51500, 32.0
11.53000, 31.0
11.54500, 20.0
11.56000, 26.0
11.57500, 34.0
11.59000, 30.0
11.60500, 36.0
11.62000, 20.0
11.63500, 17.0
11.65000, 23.0
11.66500, 25.0
11.68000, 31.0
11.69500, 24.0
11.71000, 29.0
11.72500, 28.0
11.74000, 25.0
11.75500, 29.0
11.77000, 19.0
11.78500, 22.0
11.80000, 27.0
11.81500, 23.0
11.83000, 22.0
11.84500, 26.0
11.86000, 23.0
11.87500, 24.0
11.89000, 22.0
11.90500, 28.0
11.92000, 23.0
11.93500, 22.0
11.95000, 19.0
11.96500, 21.0
11.98000, 26.0
11.99500, 20.0
12.01000, 24.0
12.02500, 26.0
12.04000, 21.0
12.05500, 17.0
12.07000, 26.0
12.08500, 23.0
12.10000, 26.0
12.11500, 21.0
12.13000, 19.0
12.14500, 21.0
12.16000, 21.0
12.17500, 21.0
12.19000, 20.0
12.20500, 24.0
12.22000, 25.0
12.23500, 22.0
12.25000, 22.0
12.26500, 17.0
12.28000, 23.0
12.29500, 21.0
12.31000, 25.0
12.32500, 22.0
12.34000, 27.0
12.35500, 26.0
12.37000, 22.0
12.38500, 17.0
12.40000, 19.0
12.41500, 22.0
12.43000, 24.0
12.44500, 22.0
12.46000, 15.0
12.47500, 23.0
12.49000, 22.0
12.50500, 16.0
12.52000, 20.0
12.53500, 19.0
12.55000, 16.0
12.56500, 16.0
12.58000, 23.0
12.59500, 19.0
12.61000, 24.0
12.62500, 28.0
12.64000, 15.0
12.65500, 21.0
12.67000, 20.0
12.68500, 16.0
12.70000, 20.0
12.71500, 14.0
12.73000, 20.0
12.74500, 17.0
12.76000, 20.0
12.77500, 23.0
12.79000, 17.0
12.80500, 21.0
12.82000, 19.0
12.83500, 19.0
12.85000, 16.0
12.86500, 20.0
12.88000, 18.0
12.89500, 15.0
12.91000, 17.0
12.92500, 21.0
12.94000, 13.0
12.95500, 20.0
12.97000, 16.0
12.98500, 24.0
13.00000, 21.0
13.01500, 18.0
13.03000, 19.0
13.04500, 19.0
13.06000, 15.0
13.07500, 14.0
13.09000, 14.0
13.10500, 21.0
13.12000, 15.0
13.13500, 21.0
13.15000, 16.0
13.16500, 19.0
13.18000, 14.0
13.19500, 17.0
13.21000, 17.0
13.22500, 12.0
13.24000, 16.0
13.25500, 16.0
13.27000, 17.0
13.28500, 18.0
13.30000, 16.0
13.31500, 12.0
13.33000, 14.0
13.34500, 17.0
13.36000, 13.0
13.37500, 16.0
13.39000, 14.0
13.40500, 14.0
13.42000, 16.0
13.43500, 13.0
13.45000, 17.0
13.46500, 18.0
13.48000, 15.0
13.49500, 14.0
13.51000, 16.0
13.52500, 10.0
13.54000, 14.0
13.55500, 13.0
13.57000, 12.0
13.58500, 17.0
13.60000, 18.0
13.61500, 16.0
13.63000, 21.0
13.64500, 14.0
13.66000, 12.0
13.67500, 13.0
13.69000, 12.0
13.70500, 14.0
13.72000, 12.0
13.73500, 17.0
13.75000, 10.0
13.76500, 15.0
13.78000, 13.0
13.79500, 13.0
13.81000, 17.0
13.82500, 16.0
13.84000, 11.0
13.85500, 12.0
13.87000, 16.0
13.88500, 11.0
13.90000, 13.0
13.91500, 11.0
13.93000, 12.0
13.94500, 10.0
13.96000, 11.0
13.97500, 15.0
13.99000, 12.0
14.00500, 7.0
14.02000, 18.0
14.03500, 14.0
14.05000, 13.0
14.06500, 12.0
14.08000, 15.0
14.09500, 9.0
14.11000, 18.0
14.12500, 18.0
14.14000, 11.0
14.15500, 14.0
14.17000, 15.0
14.18500, 11.0
14.20000, 9.0
14.21500, 12.0
14.23000, 10.0
14.24500, 13.0
14.26000, 11.0
14.27500, 9.0
14.29000, 10.0
14.30500, 15.0
14.32000, 10.0
14.33500, 9.0
14.35000, 12.0
14.36500, 11.0
14.38000, 12.0
14.39500, 12.0
14.41000, 13.0
14.42500, 11.0
14.44000, 14.0
14.45500, 12.0
14.47000, 10.0
14.48500, 11.0
14.50000, 9.0
14.51500, 10.0
14.53000, 10.0
14.54500, 11.0
14.56000, 14.0
14.57500, 7.0
14.59000, 9.0
14.60500, 11.0
14.62000, 13.0
14.63500, 9.0
14.65000, 9.0
14.66500, 10.0
14.68000, 12.0
14.69500, 9.0
14.71000, 7.0
14.72500, 13.0
14.74000, 11.0
14.75500, 12.0
14.77000, 16.0
14.78500, 8.0
14.80000, 13.0
14.81500, 10.0
14.83000, 11.0
14.84500, 8.0
14.86000, 11.0
14.87500, 10.0
14.89000, 10.0
14.90500, 9.0
14.92000, 10.0
14.93500, 7.0
14.95000, 11.0
14.96500, 6.0
14.98000, 6.0
14.99500, 7.0
15.01000, 8.0
15.02500, 8.0
15.04000, 7.0
15.05500, 11.0
15.07000, 4.0
15.08500, 14.0
15.10000, 12.0
15.11500, 8.0
15.13000, 9.0
15.14500, 13.0
15.16000, 8.0
15.17500, 9.0
15.19000, 11.0
15.20500, 7.0
15.22000, 9.0
15.23500, 5.0
15.25000, 9.0
15.26500, 7.0
15.28000, 8.0
15.29500, 8.0
15.31000, 8.0
15.32500, 10.0
15.34000, 10.0
15.35500, 8.0
15.37000, 5.0
15.38500, 5.0
15.40000, 6.0
15.41500, 7.0
15.43000, 7.0
15.44500, 9.0
15.46000, 6.0
15.47500, 6.0
15.49000, 4.0
15.50500, 7.0
15.52000, 8.0
15.53500, 9.0
15.55000, 5.0
15.56500, 7.0
15.58000, 3.0
15.59500, 4.0
15.61000, 7.0
15.62500, 9.0
15.64000, 7.0
15.65500, 5.0
15.67000, 7.0
15.68500, 5.0
15.70000, 7.0
15.71500, 8.0
15.73000, 10.0
15.74500, 7.0
15.76000, 7.0
15.77500, 5.0
15.79000, 12.0
15.80500, 3.0
15.82000, 10.0
15.83500, 8.0
15.85000, 5.0
15.86500, 3.0
15.88000, 6.0
15.89500, 5.0
15.91000, 6.0
15.92500, 6.0
15.94000, 3.0
15.95500, 7.0
15.97000, 9.0
15.98500, 7.0
16.00000, 4.0
16.01500, 9.0
16.03000, 6.0
16.04500, 8.0
16.06000, 7.0
16.07500, 7.0
16.09000, 11.0
16.10500, 4.0
16.12000, 6.0
16.13500, 7.0
16.15000, 4.0
16.16500, 7.0
16.18000, 5.0
16.19500, 4.0
16.21000, 5.0
16.22500, 8.0
16.24000, 5.0
16.25500, 3.0
16.27000, 5.0
16.28500, 4.0
16.30000, 4.0
16.31500, 6.0
16.33000, 5.0
16.34500, 6.0
16.36000, 4.0
16.37500, 3.0
16.39000, 1.0
16.40500, 5.0
16.42000, 8.0
16.43500, 3.0
16.45000, 5.0
16.46500, 5.0
16.48000, 6.0
16.49500, 5.0
16.51000, 3.0
16.52500, 4.0
16.54000, 6.0
16.55500, 7.0
16.57000, 4.0
16.58500, 5.0
16.60000, 4.0
16.61500, 4.0
16.63000, 3.0
16.64500, 2.0
16.66000, 4.0
16.67500, 2.0
16.69000, 4.0
16.70500, 7.0
16.72000, 2.0
16.73500, 5.0
16.75000, 3.0
16.76500, 2.0
16.78000, 0.0
16.79500, 4.0
16.81000, 2.0
16.82500, 3.0
16.84000, 7.0
16.85500, 5.0
16.87000, 4.0
16.88500, 3.0
16.90000, 4.0
16.91500, 5.0
16.93000, 3.0
16.94500, 4.0
16.96000, 1.0
16.97500, 4.0
16.99000, 4.0
17.00500, 6.0
17.02000, 3.0
17.03500, 2.0
17.05000, 2.0
17.06500, 4.0
17.08000, 2.0
17.09500, 3.0
17.11000, 1.0
17.12500, 4.0
17.14000, 5.0
17.15500, 3.0
17.17000, 3.0
17.18500, 4.0
17.20000, 0.0
17.21500, 6.0
17.23000, 5.0
17.24500, 1.0
17.26000, 3.0
17.27500, 4.0
17.29000, 3.0
17.30500, 2.0
17.32000, 1.0
17.33500, 3.0
17.35000, 2.0
17.36500, 3.0
17.38000, 2.0
17.39500, 3.0
17.41000, 3.0
17.42500, 3.0
17.44000, 2.0
17.45500, 3.0
17.47000, 3.0
17.48500, 4.0
17.50000, 2.0
17.51500, 5.0
17.53000, 1.0
17.54500, 2.0
17.56000, 1.0
17.57500, 1.0
17.59000, 0.0
17.60500, 3.0
17.62000, 1.0
17.63500, 1.0
17.65000, 1.0
17.66500, 0.0
17.68000, 1.0
17.69500, 2.0
17.71000, 3.0
17.72500, 3.0
17.74000, 1.0
17.75500, 5.0
17.77000, 3.0
17.78500, 2.0
17.80000, 4.0
17.81500, 3.0
17.83000, 6.0
17.84500, 5.0
17.86000, 1.0
17.87500, 1.0
17.89000, 2.0
17.90500, 4.0
17.92000, 2.0
17.93500, 2.0
17.95000, 1.0
17.96500, 1.0
17.98000, 1.0
17.99500, 1.0
18.01000, 4.0
18.02500, 5.0
18.04000, 0.0
18.05500, 1.0
18.07000, 4.0
18.08500, 0.0
18.10000, 1.0
18.11500, 2.0
18.13000, 1.0
18.14500, 1.0
18.16000, 1.0
18.17500, 2.0
18.19000, 2.0
18.20500, 3.0
18.22000, 4.0
18.23500, 1.0
18.25000, 0.0
18.26500, 2.0
18.28000, 3.0
18.29500, 2.0
18.31000, 2.0
18.32500, 1.0
18.34000, 1.0
18.35500, 1.0
18.37000, 2.0
18.38500, 1.0
18.40000, 1.0
18.41500, 0.0
18.43000, 2.0
18.44500, 3.0
18.46000, 1.0
18.47500, 0.0
18.49000, 0.0
18.50500, 1.0
18.52000, 2.0
18.53500, 2.0
18.55000, 1.0
18.56500, 2.0
18.58000, 0.0
18.59500, 2.0
18.61000, 2.0
18.62500, 1.0
18.64000, 3.0
18.65500, 1.0
18.67000, 1.0
18.68500, 0.0
18.70000, 0.0
18.71500, 2.0
18.73000, 0.0
18.74500, 0.0
18.76000, 1.0
18.77500, 0.0
18.79000, 3.0
18.80500, 0.0
18.82000, 1.0
18.83500, 1.0
18.85000, 2.0
18.86500, 2.0
18.88000, 0.0
18.89500, 0.0
18.91000, 0.0
18.92500, 2.0
18.94000, 0.0
18.95500, 1.0
18.97000, 2.0
18.98500, 0.0
19.00000, 0.0
19.01500, 0.0
19.03000, 1.0
19.04500, 3.0
19.06000, 0.0
19.07500, 2.0
19.09000, 0.0
19.10500, 0.0
19.12000, 2.0
19.13500, 1.0
19.15000, 0.0
19.16500, 1.0
19.18000, 2.0
19.19500, 1.0
19.21000, 1.0
19.22500, 0.0
19.24000, 1.0
19.25500, 1.0
19.27000, 1.0
19.28500, 1.0
19.30000, 0.0
19.31500, 0.0
19.33000, 0.0
19.34500, 0.0
19.36000, 0.0
19.37500, 1.0
19.39000, 0.0
19.40500, 0.0
19.42000, 0.0
19.43500, 0.0
19.45000, 1.0
19.46500, 0.0
19.48000, 0.0
19.49500, 1.0
19.51000, 0.0
19.52500, 0.0
19.54000, 0.0
19.55500, 1.0
19.57000, 1.0
19.58500, 0.0
19.60000, 0.0
19.61500, 0.0
19.63000, 0.0
19.64500, 0.0
19.66000, 0.0
19.67500, 1.0
19.69000, 0.0
19.70500, 0.0
19.72000, 1.0
19.73500, 0.0
19.75000, 1.0
19.76500, 0.0
19.78000, 0.0
19.79500, 1.0
19.81000, 0.0
19.82500, 1.0
19.84000, 0.0
19.85500, 0.0
19.87000, 0.0
19.88500, 0.0
19.90000, 0.0
19.91500, 0.0
19.93000, 0.0
19.94500, 0.0
19.96000, 0.0
19.97500, 0.0
19.99000, 0.0
20.00500, 0.0
20.02000, 0.0
20.03500, 0.0
20.05000, 0.0
20.06500, 1.0
20.08000, 0.0
20.09500, 0.0
20.11000, 0.0
20.12500, 1.0
20.14000, 0.0
20.15500, 0.0
20.17000, 0.0
20.18500, 0.0
20.20000, 0.0
20.21500, 0.0
20.23000, 1.0
20.24500, 0.0
20.26000, 0.0
20.27500, 0.0
#ENDOFDATA   :