File: dat/msa/Si-Cal-20kV/Si-20kV-S5-P4-2K.msa
#FORMAT      : EMSA/MAS Spectral Data File
#VERSION     : 1.0
#TITLE       : Si-20kV-S5-P4-2K
#DATE        : 16-SEP-2016
#TIME        : 11:21
#OWNER       : John Minter
#NPOINTS     : 2048.0
#NCOLUMNS    : 1.0
#XUNITS      : keV
#YUNITS      : counts
#DATATYPE    : XY
#XPERCHAN    : 0.005
#OFFSET      : -0.1
#SIGNALTYPE  : EDS
#CHOFFSET    : 20.0
#LIVETIME    : 100.0
#REALTIME    : 194.479
#BEAMKV      : 20.0
#PROBECUR    : 3.49
#MAGCAM      : 8000.0
#XTILTSTGE   : 0.0
#AZIMANGLE   : 0.0
#ELEVANGLE   : 35.0
#XPOSITION mm: 1.6240
#YPOSITION mm: -1.3010
#ZPOSITION mm: 4.7660
##OXINSTPT   : 4
##OXINSTSTROB: 48.08
##OXINSTELEMS: 14,6,8
##OXINSTLABEL: 14, 1.740, Si
##OXINSTLABEL: 6, 0.277, C
##OXINSTLABEL: 8, 0.525, O
#SPECTRUM    : Spectral Data Starts Here
-0.10000, 0.0
-0.09000, 0.0
-0.08000, 1.0
-0.07000, 0.0
-0.06000, 5.0
-0.05000, 22.0
-0.04000, 84.0
-0.03000, 201.0
-0.02000, 472.0
-0.01000, 832.0
0.00000, 1238.0
0.01000, 1490.0
0.02000, 1537.0
0.03000, 1524.0
0.04000, 1361.0
0.05000, 1092.0
0.06000, 1010.0
0.07000, 1079.0
0.08000, 1326.0
0.09000, 1561.0
0.10000, 1669.0
0.11000, 1420.0
0.12000, 1051.0
0.13000, 698.0
0.14000, 473.0
0.15000, 325.0
0.16000, 257.0
0.17000, 230.0
0.18000, 211.0
0.19000, 214.0
0.20000, 217.0
0.21000, 210.0
0.22000, 225.0
0.23000, 290.0
0.24000, 371.0
0.25000, 462.0
0.26000, 543.0
0.27000, 600.0
0.28000, 569.0
0.29000, 517.0
0.30000, 414.0
0.31000, 325.0
0.32000, 267.0
0.33000, 243.0
0.34000, 214.0
0.35000, 240.0
0.36000, 237.0
0.37000, 260.0
0.38000, 282.0
0.39000, 290.0
0.40000, 326.0
0.41000, 338.0
0.42000, 356.0
0.43000, 420.0
0.44000, 426.0
0.45000, 509.0
0.46000, 522.0
0.47000, 559.0
0.48000, 591.0
0.49000, 622.0
0.50000, 761.0
0.51000, 761.0
0.52000, 784.0
0.53000, 797.0
0.54000, 738.0
0.55000, 729.0
0.56000, 731.0
0.57000, 684.0
0.58000, 695.0
0.59000, 703.0
0.60000, 754.0
0.61000, 796.0
0.62000, 821.0
0.63000, 865.0
0.64000, 905.0
0.65000, 964.0
0.66000, 982.0
0.67000, 1075.0
0.68000, 1044.0
0.69000, 1090.0
0.70000, 1123.0
0.71000, 1156.0
0.72000, 1192.0
0.73000, 1275.0
0.74000, 1335.0
0.75000, 1340.0
0.76000, 1390.0
0.77000, 1383.0
0.78000, 1466.0
0.79000, 1468.0
0.80000, 1549.0
0.81000, 1549.0
0.82000, 1558.0
0.83000, 1631.0
0.84000, 1624.0
0.85000, 1702.0
0.86000, 1678.0
0.87000, 1752.0
0.88000, 1828.0
0.89000, 1806.0
0.90000, 1848.0
0.91000, 1853.0
0.92000, 1913.0
0.93000, 1974.0
0.94000, 1932.0
0.95000, 2004.0
0.96000, 2046.0
0.97000, 1992.0
0.98000, 2109.0
0.99000, 2031.0
1.00000, 2127.0
1.01000, 2159.0
1.02000, 2138.0
1.03000, 2144.0
1.04000, 2192.0
1.05000, 2218.0
1.06000, 2182.0
1.07000, 2270.0
1.08000, 2246.0
1.09000, 2210.0
1.10000, 2259.0
1.11000, 2279.0
1.12000, 2320.0
1.13000, 2275.0
1.14000, 2312.0
1.15000, 2324.0
1.16000, 2360.0
1.17000, 2370.0
1.18000, 2368.0
1.19000, 2370.0
1.20000, 2384.0
1.21000, 2399.0
1.22000, 2397.0
1.23000, 2483.0
1.24000, 2478.0
1.25000, 2467.0
1.26000, 2425.0
1.27000, 2491.0
1.28000, 2511.0
1.29000, 2516.0
1.30000, 2533.0
1.31000, 2512.0
1.32000, 2543.0
1.33000, 2597.0
1.34000, 2663.0
1.35000, 2580.0
1.36000, 2618.0
1.37000, 2617.0
1.38000, 2672.0
1.39000, 2718.0
1.40000, 2757.0
1.41000, 2801.0
1.42000, 2823.0
1.43000, 2840.0
1.44000, 2973.0
1.45000, 3107.0
1.46000, 3032.0
1.47000, 3107.0
1.48000, 3332.0
1.49000, 3366.0
1.50000, 3409.0
1.51000, 3570.0
1.52000, 3632.0
1.53000, 3660.0
1.54000, 3704.0
1.55000, 3768.0
1.56000, 3732.0
1.57000, 3895.0
1.58000, 3839.0
1.59000, 3810.0
1.60000, 3801.0
1.61000, 3940.0
1.62000, 4246.0
1.63000, 5276.0
1.64000, 7879.0
1.65000, 13732.0
1.66000, 25026.0
1.67000, 45360.0
1.68000, 78497.0
1.69000, 126134.0
1.70000, 187630.0
1.71000, 256781.0
1.72000, 323674.0
1.73000, 375569.0
1.74000, 401277.0
1.75000, 393604.0
1.76000, 355458.0
1.77000, 296467.0
1.78000, 228795.0
1.79000, 164334.0
1.80000, 112174.0
1.81000, 73873.0
1.82000, 49224.0
1.83000, 33961.0
1.84000, 25405.0
1.85000, 19609.0
1.86000, 15233.0
1.87000, 11800.0
1.88000, 8657.0
1.89000, 5981.0
1.90000, 4083.0
1.91000, 2691.0
1.92000, 1785.0
1.93000, 1241.0
1.94000, 936.0
1.95000, 748.0
1.96000, 675.0
1.97000, 647.0
1.98000, 652.0
1.99000, 613.0
2.00000, 653.0
2.01000, 657.0
2.02000, 652.0
2.03000, 623.0
2.04000, 633.0
2.05000, 643.0
2.06000, 640.0
2.07000, 659.0
2.08000, 610.0
2.09000, 656.0
2.10000, 622.0
2.11000, 637.0
2.12000, 625.0
2.13000, 628.0
2.14000, 634.0
2.15000, 636.0
2.16000, 649.0
2.17000, 658.0
2.18000, 667.0
2.19000, 635.0
2.20000, 661.0
2.21000, 694.0
2.22000, 683.0
2.23000, 675.0
2.24000, 656.0
2.25000, 698.0
2.26000, 682.0
2.27000, 660.0
2.28000, 700.0
2.29000, 728.0
2.30000, 733.0
2.31000, 674.0
2.32000, 713.0
2.33000, 726.0
2.34000, 725.0
2.35000, 739.0
2.36000, 709.0
2.37000, 703.0
2.38000, 752.0
2.39000, 749.0
2.40000, 734.0
2.41000, 754.0
2.42000, 733.0
2.43000, 774.0
2.44000, 747.0
2.45000, 735.0
2.46000, 772.0
2.47000, 775.0
2.48000, 786.0
2.49000, 793.0
2.50000, 754.0
2.51000, 781.0
2.52000, 796.0
2.53000, 784.0
2.54000, 796.0
2.55000, 778.0
2.56000, 792.0
2.57000, 833.0
2.58000, 817.0
2.59000, 828.0
2.60000, 850.0
2.61000, 833.0
2.62000, 818.0
2.63000, 856.0
2.64000, 847.0
2.65000, 834.0
2.66000, 870.0
2.67000, 822.0
2.68000, 842.0
2.69000, 851.0
2.70000, 889.0
2.71000, 900.0
2.72000, 834.0
2.73000, 846.0
2.74000, 854.0
2.75000, 877.0
2.76000, 862.0
2.77000, 873.0
2.78000, 874.0
2.79000, 879.0
2.80000, 835.0
2.81000, 832.0
2.82000, 900.0
2.83000, 846.0
2.84000, 888.0
2.85000, 873.0
2.86000, 859.0
2.87000, 871.0
2.88000, 891.0
2.89000, 824.0
2.90000, 855.0
2.91000, 878.0
2.92000, 891.0
2.93000, 876.0
2.94000, 843.0
2.95000, 918.0
2.96000, 872.0
2.97000, 845.0
2.98000, 896.0
2.99000, 903.0
3.00000, 901.0
3.01000, 876.0
3.02000, 909.0
3.03000, 896.0
3.04000, 899.0
3.05000, 904.0
3.06000, 903.0
3.07000, 910.0
3.08000, 889.0
3.09000, 913.0
3.10000, 877.0
3.11000, 937.0
3.12000, 916.0
3.13000, 894.0
3.14000, 885.0
3.15000, 882.0
3.16000, 896.0
3.17000, 879.0
3.18000, 944.0
3.19000, 900.0
3.20000, 923.0
3.21000, 912.0
3.22000, 927.0
3.23000, 941.0
3.24000, 936.0
3.25000, 931.0
3.26000, 933.0
3.27000, 951.0
3.28000, 937.0
3.29000, 923.0
3.30000, 948.0
3.31000, 964.0
3.32000, 981.0
3.33000, 963.0
3.34000, 978.0
3.35000, 995.0
3.36000, 1064.0
3.37000, 1188.0
3.38000, 1375.0
3.39000, 1681.0
3.40000, 2228.0
3.41000, 2925.0
3.42000, 3820.0
3.43000, 4951.0
3.44000, 6080.0
3.45000, 7169.0
3.46000, 8341.0
3.47000, 9267.0
3.48000, 9828.0
3.49000, 9814.0
3.50000, 9315.0
3.51000, 8782.0
3.52000, 7658.0
3.53000, 6599.0
3.54000, 5505.0
3.55000, 4516.0
3.56000, 3516.0
3.57000, 2952.0
3.58000, 2478.0
3.59000, 2013.0
3.60000, 1667.0
3.61000, 1494.0
3.62000, 1326.0
3.63000, 1219.0
3.64000, 1068.0
3.65000, 912.0
3.66000, 875.0
3.67000, 782.0
3.68000, 787.0
3.69000, 729.0
3.70000, 717.0
3.71000, 725.0
3.72000, 691.0
3.73000, 675.0
3.74000, 684.0
3.75000, 703.0
3.76000, 704.0
3.77000, 682.0
3.78000, 693.0
3.79000, 661.0
3.80000, 717.0
3.81000, 726.0
3.82000, 684.0
3.83000, 688.0
3.84000, 694.0
3.85000, 670.0
3.86000, 667.0
3.87000, 698.0
3.88000, 613.0
3.89000, 704.0
3.90000, 692.0
3.91000, 683.0
3.92000, 676.0
3.93000, 710.0
3.94000, 684.0
3.95000, 706.0
3.96000, 685.0
3.97000, 649.0
3.98000, 623.0
3.99000, 672.0
4.00000, 631.0
4.01000, 658.0
4.02000, 669.0
4.03000, 699.0
4.04000, 695.0
4.05000, 671.0
4.06000, 644.0
4.07000, 680.0
4.08000, 645.0
4.09000, 659.0
4.10000, 644.0
4.11000, 669.0
4.12000, 681.0
4.13000, 660.0
4.14000, 667.0
4.15000, 662.0
4.16000, 641.0
4.17000, 687.0
4.18000, 646.0
4.19000, 627.0
4.20000, 626.0
4.21000, 657.0
4.22000, 655.0
4.23000, 631.0
4.24000, 642.0
4.25000, 648.0
4.26000, 665.0
4.27000, 614.0
4.28000, 630.0
4.29000, 654.0
4.30000, 681.0
4.31000, 650.0
4.32000, 638.0
4.33000, 627.0
4.34000, 638.0
4.35000, 622.0
4.36000, 620.0
4.37000, 625.0
4.38000, 645.0
4.39000, 596.0
4.40000, 635.0
4.41000, 607.0
4.42000, 629.0
4.43000, 637.0
4.44000, 609.0
4.45000, 605.0
4.46000, 618.0
4.47000, 622.0
4.48000, 594.0
4.49000, 605.0
4.50000, 636.0
4.51000, 572.0
4.52000, 601.0
4.53000, 590.0
4.54000, 642.0
4.55000, 601.0
4.56000, 628.0
4.57000, 608.0
4.58000, 587.0
4.59000, 630.0
4.60000, 652.0
4.61000, 618.0
4.62000, 567.0
4.63000, 581.0
4.64000, 576.0
4.65000, 598.0
4.66000, 595.0
4.67000, 615.0
4.68000, 573.0
4.69000, 585.0
4.70000, 584.0
4.71000, 575.0
4.72000, 598.0
4.73000, 575.0
4.74000, 570.0
4.75000, 604.0
4.76000, 582.0
4.77000, 580.0
4.78000, 569.0
4.79000, 550.0
4.80000, 555.0
4.81000, 601.0
4.82000, 585.0
4.83000, 562.0
4.84000, 581.0
4.85000, 578.0
4.86000, 569.0
4.87000, 565.0
4.88000, 587.0
4.89000, 590.0
4.90000, 537.0
4.91000, 564.0
4.92000, 552.0
4.93000, 562.0
4.94000, 569.0
4.95000, 568.0
4.96000, 576.0
4.97000, 549.0
4.98000, 583.0
4.99000, 526.0
5.00000, 548.0
5.01000, 568.0
5.02000, 562.0
5.03000, 575.0
5.04000, 579.0
5.05000, 563.0
5.06000, 573.0
5.07000, 575.0
5.08000, 588.0
5.09000, 553.0
5.10000, 606.0
5.11000, 554.0
5.12000, 562.0
5.13000, 586.0
5.14000, 631.0
5.15000, 592.0
5.16000, 639.0
5.17000, 652.0
5.18000, 649.0
5.19000, 657.0
5.20000, 727.0
5.21000, 766.0
5.22000, 766.0
5.23000, 766.0
5.24000, 736.0
5.25000, 757.0
5.26000, 692.0
5.27000, 721.0
5.28000, 688.0
5.29000, 629.0
5.30000, 594.0
5.31000, 576.0
5.32000, 560.0
5.33000, 567.0
5.34000, 579.0
5.35000, 533.0
5.36000, 553.0
5.37000, 494.0
5.38000, 481.0
5.39000, 535.0
5.40000, 542.0
5.41000, 510.0
5.42000, 534.0
5.43000, 525.0
5.44000, 520.0
5.45000, 505.0
5.46000, 467.0
5.47000, 520.0
5.48000, 489.0
5.49000, 485.0
5.50000, 477.0
5.51000, 463.0
5.52000, 503.0
5.53000, 466.0
5.54000, 494.0
5.55000, 490.0
5.56000, 465.0
5.57000, 492.0
5.58000, 462.0
5.59000, 472.0
5.60000, 459.0
5.61000, 487.0
5.62000, 493.0
5.63000, 464.0
5.64000, 483.0
5.65000, 504.0
5.66000, 465.0
5.67000, 492.0
5.68000, 487.0
5.69000, 489.0
5.70000, 457.0
5.71000, 493.0
5.72000, 473.0
5.73000, 453.0
5.74000, 449.0
5.75000, 462.0
5.76000, 470.0
5.77000, 460.0
5.78000, 464.0
5.79000, 472.0
5.80000, 465.0
5.81000, 443.0
5.82000, 453.0
5.83000, 448.0
5.84000, 440.0
5.85000, 442.0
5.86000, 426.0
5.87000, 450.0
5.88000, 429.0
5.89000, 435.0
5.90000, 425.0
5.91000, 453.0
5.92000, 465.0
5.93000, 479.0
5.94000, 475.0
5.95000, 464.0
5.96000, 419.0
5.97000, 486.0
5.98000, 441.0
5.99000, 455.0
6.00000, 418.0
6.01000, 421.0
6.02000, 425.0
6.03000, 423.0
6.04000, 415.0
6.05000, 467.0
6.06000, 429.0
6.07000, 459.0
6.08000, 466.0
6.09000, 443.0
6.10000, 416.0
6.11000, 404.0
6.12000, 416.0
6.13000, 427.0
6.14000, 396.0
6.15000, 454.0
6.16000, 440.0
6.17000, 442.0
6.18000, 452.0
6.19000, 449.0
6.20000, 401.0
6.21000, 395.0
6.22000, 420.0
6.23000, 416.0
6.24000, 391.0
6.25000, 413.0
6.26000, 444.0
6.27000, 400.0
6.28000, 429.0
6.29000, 410.0
6.30000, 413.0
6.31000, 420.0
6.32000, 432.0
6.33000, 412.0
6.34000, 388.0
6.35000, 422.0
6.36000, 378.0
6.37000, 406.0
6.38000, 378.0
6.39000, 416.0
6.40000, 387.0
6.41000, 398.0
6.42000, 405.0
6.43000, 409.0
6.44000, 407.0
6.45000, 385.0
6.46000, 398.0
6.47000, 431.0
6.48000, 414.0
6.49000, 373.0
6.50000, 368.0
6.51000, 382.0
6.52000, 385.0
6.53000, 423.0
6.54000, 392.0
6.55000, 365.0
6.56000, 382.0
6.57000, 375.0
6.58000, 385.0
6.59000, 432.0
6.60000, 408.0
6.61000, 379.0
6.62000, 398.0
6.63000, 367.0
6.64000, 360.0
6.65000, 375.0
6.66000, 379.0
6.67000, 397.0
6.68000, 406.0
6.69000, 378.0
6.70000, 394.0
6.71000, 376.0
6.72000, 361.0
6.73000, 361.0
6.74000, 385.0
6.75000, 369.0
6.76000, 368.0
6.77000, 380.0
6.78000, 353.0
6.79000, 364.0
6.80000, 343.0
6.81000, 370.0
6.82000, 352.0
6.83000, 386.0
6.84000, 378.0
6.85000, 331.0
6.86000, 362.0
6.87000, 350.0
6.88000, 351.0
6.89000, 328.0
6.90000, 333.0
6.91000, 348.0
6.92000, 360.0
6.93000, 362.0
6.94000, 350.0
6.95000, 382.0
6.96000, 341.0
6.97000, 344.0
6.98000, 372.0
6.99000, 365.0
7.00000, 362.0
7.01000, 378.0
7.02000, 348.0
7.03000, 349.0
7.04000, 339.0
7.05000, 332.0
7.06000, 347.0
7.07000, 331.0
7.08000, 370.0
7.09000, 342.0
7.10000, 341.0
7.11000, 333.0
7.12000, 353.0
7.13000, 336.0
7.14000, 351.0
7.15000, 349.0
7.16000, 356.0
7.17000, 323.0
7.18000, 345.0
7.19000, 352.0
7.20000, 319.0
7.21000, 315.0
7.22000, 365.0
7.23000, 332.0
7.24000, 346.0
7.25000, 327.0
7.26000, 333.0
7.27000, 338.0
7.28000, 339.0
7.29000, 352.0
7.30000, 317.0
7.31000, 313.0
7.32000, 307.0
7.33000, 345.0
7.34000, 336.0
7.35000, 318.0
7.36000, 312.0
7.37000, 315.0
7.38000, 324.0
7.39000, 324.0
7.40000, 308.0
7.41000, 325.0
7.42000, 308.0
7.43000, 306.0
7.44000, 306.0
7.45000, 303.0
7.46000, 309.0
7.47000, 310.0
7.48000, 319.0
7.49000, 320.0
7.50000, 299.0
7.51000, 334.0
7.52000, 306.0
7.53000, 315.0
7.54000, 299.0
7.55000, 299.0
7.56000, 331.0
7.57000, 295.0
7.58000, 309.0
7.59000, 294.0
7.60000, 325.0
7.61000, 316.0
7.62000, 332.0
7.63000, 295.0
7.64000, 321.0
7.65000, 288.0
7.66000, 299.0
7.67000, 295.0
7.68000, 311.0
7.69000, 297.0
7.70000, 289.0
7.71000, 304.0
7.72000, 284.0
7.73000, 309.0
7.74000, 290.0
7.75000, 267.0
7.76000, 277.0
7.77000, 322.0
7.78000, 286.0
7.79000, 296.0
7.80000, 265.0
7.81000, 297.0
7.82000, 302.0
7.83000, 291.0
7.84000, 290.0
7.85000, 284.0
7.86000, 281.0
7.87000, 280.0
7.88000, 295.0
7.89000, 282.0
7.90000, 314.0
7.91000, 273.0
7.92000, 273.0
7.93000, 257.0
7.94000, 276.0
7.95000, 287.0
7.96000, 293.0
7.97000, 290.0
7.98000, 291.0
7.99000, 275.0
8.00000, 298.0
8.01000, 287.0
8.02000, 253.0
8.03000, 282.0
8.04000, 267.0
8.05000, 266.0
8.06000, 271.0
8.07000, 283.0
8.08000, 268.0
8.09000, 279.0
8.10000, 257.0
8.11000, 259.0
8.12000, 276.0
8.13000, 265.0
8.14000, 264.0
8.15000, 259.0
8.16000, 249.0
8.17000, 265.0
8.18000, 282.0
8.19000, 265.0
8.20000, 274.0
8.21000, 251.0
8.22000, 279.0
8.23000, 249.0
8.24000, 259.0
8.25000, 261.0
8.26000, 251.0
8.27000, 259.0
8.28000, 246.0
8.29000, 262.0
8.30000, 273.0
8.31000, 260.0
8.32000, 270.0
8.33000, 267.0
8.34000, 255.0
8.35000, 246.0
8.36000, 276.0
8.37000, 232.0
8.38000, 232.0
8.39000, 255.0
8.40000, 279.0
8.41000, 263.0
8.42000, 253.0
8.43000, 267.0
8.44000, 252.0
8.45000, 239.0
8.46000, 250.0
8.47000, 270.0
8.48000, 278.0
8.49000, 246.0
8.50000, 242.0
8.51000, 254.0
8.52000, 242.0
8.53000, 215.0
8.54000, 238.0
8.55000, 237.0
8.56000, 227.0
8.57000, 238.0
8.58000, 228.0
8.59000, 239.0
8.60000, 235.0
8.61000, 243.0
8.62000, 238.0
8.63000, 243.0
8.64000, 228.0
8.65000, 239.0
8.66000, 248.0
8.67000, 235.0
8.68000, 248.0
8.69000, 241.0
8.70000, 224.0
8.71000, 251.0
8.72000, 228.0
8.73000, 227.0
8.74000, 220.0
8.75000, 239.0
8.76000, 234.0
8.77000, 221.0
8.78000, 240.0
8.79000, 242.0
8.80000, 226.0
8.81000, 254.0
8.82000, 246.0
8.83000, 231.0
8.84000, 220.0
8.85000, 229.0
8.86000, 230.0
8.87000, 227.0
8.88000, 222.0
8.89000, 225.0
8.90000, 228.0
8.91000, 242.0
8.92000, 230.0
8.93000, 228.0
8.94000, 219.0
8.95000, 220.0
8.96000, 208.0
8.97000, 226.0
8.98000, 226.0
8.99000, 213.0
9.00000, 233.0
9.01000, 222.0
9.02000, 227.0
9.03000, 258.0
9.04000, 223.0
9.05000, 231.0
9.06000, 222.0
9.07000, 213.0
9.08000, 227.0
9.09000, 205.0
9.10000, 229.0
9.11000, 215.0
9.12000, 219.0
9.13000, 213.0
9.14000, 220.0
9.15000, 221.0
9.16000, 205.0
9.17000, 209.0
9.18000, 228.0
9.19000, 209.0
9.20000, 233.0
9.21000, 201.0
9.22000, 214.0
9.23000, 210.0
9.24000, 208.0
9.25000, 212.0
9.26000, 208.0
9.27000, 207.0
9.28000, 226.0
9.29000, 214.0
9.30000, 227.0
9.31000, 203.0
9.32000, 201.0
9.33000, 204.0
9.34000, 225.0
9.35000, 225.0
9.36000, 208.0
9.37000, 189.0
9.38000, 200.0
9.39000, 190.0
9.40000, 212.0
9.41000, 197.0
9.42000, 199.0
9.43000, 206.0
9.44000, 202.0
9.45000, 201.0
9.46000, 207.0
9.47000, 189.0
9.48000, 216.0
9.49000, 196.0
9.50000, 192.0
9.51000, 204.0
9.52000, 207.0
9.53000, 188.0
9.54000, 185.0
9.55000, 181.0
9.56000, 193.0
9.57000, 205.0
9.58000, 196.0
9.59000, 213.0
9.60000, 190.0
9.61000, 183.0
9.62000, 200.0
9.63000, 178.0
9.64000, 187.0
9.65000, 188.0
9.66000, 201.0
9.67000, 186.0
9.68000, 188.0
9.69000, 180.0
9.70000, 171.0
9.71000, 187.0
9.72000, 180.0
9.73000, 185.0
9.74000, 191.0
9.75000, 194.0
9.76000, 185.0
9.77000, 186.0
9.78000, 196.0
9.79000, 195.0
9.80000, 167.0
9.81000, 186.0
9.82000, 175.0
9.83000, 192.0
9.84000, 187.0
9.85000, 189.0
9.86000, 189.0
9.87000, 175.0
9.88000, 183.0
9.89000, 186.0
9.90000, 179.0
9.91000, 176.0
9.92000, 180.0
9.93000, 197.0
9.94000, 177.0
9.95000, 176.0
9.96000, 184.0
9.97000, 199.0
9.98000, 174.0
9.99000, 172.0
10.00000, 192.0
10.01000, 163.0
10.02000, 164.0
10.03000, 172.0
10.04000, 186.0
10.05000, 173.0
10.06000, 175.0
10.07000, 180.0
10.08000, 178.0
10.09000, 146.0
10.10000, 154.0
10.11000, 160.0
10.12000, 174.0
10.13000, 176.0
10.13500, 177.0
#ENDOFDATA   :