File: dat/msa/Si-Cal-5kV/qm-04963-Si-Pt4-2.35uA-5kV-HR-5mm.msa
#FORMAT      : EMSA/MAS Spectral Data File
#VERSION     : 1.0
#TITLE       : qm-04963-Si-Pt4-2.35uA-5kV-HR-5mm
#DATE        : 07-SEP-2016
#TIME        : 16:17
#OWNER       : John Minter
#NPOINTS     : 2048.0
#NCOLUMNS    : 1.0
#XUNITS      : keV
#YUNITS      : counts
#DATATYPE    : XY
#XPERCHAN    : 0.005
#OFFSET      : -0.1
#SIGNALTYPE  : EDS
#CHOFFSET    : 20.0
#LIVETIME    : 60.0
#REALTIME    : 64.7614
#BEAMKV      : 5.0
#PROBECUR    : 2.35
#MAGCAM      : 35000.0
#XTILTSTGE   : 0.0
#AZIMANGLE   : 0.0
#ELEVANGLE   : 35.0
#XPOSITION mm: 0.8330
#YPOSITION mm: 0.7400
#ZPOSITION mm: 4.9980
##OXINSTPT   : 4
##OXINSTSTROB: 48.01
##OXINSTELEMS: 14,6,8
##OXINSTLABEL: 14, 1.740, Si
##OXINSTLABEL: 6, 0.277, C
##OXINSTLABEL: 8, 0.525, O
#SPECTRUM    : Spectral Data Starts Here
-0.10000, 0.0
-0.09000, 0.0
-0.08000, 0.0
-0.07000, 1.0
-0.06000, 3.0
-0.05000, 17.0
-0.04000, 42.0
-0.03000, 123.0
-0.02000, 318.0
-0.01000, 546.0
0.00000, 836.0
0.01000, 991.0
0.02000, 1200.0
0.03000, 1338.0
0.04000, 1476.0
0.05000, 1391.0
0.06000, 1316.0
0.07000, 1205.0
0.08000, 1408.0
0.09000, 1708.0
0.10000, 1736.0
0.11000, 1547.0
0.12000, 1111.0
0.13000, 674.0
0.14000, 391.0
0.15000, 222.0
0.16000, 149.0
0.17000, 138.0
0.18000, 141.0
0.19000, 158.0
0.20000, 173.0
0.21000, 198.0
0.22000, 236.0
0.23000, 277.0
0.24000, 359.0
0.25000, 438.0
0.26000, 532.0
0.27000, 538.0
0.28000, 575.0
0.29000, 491.0
0.30000, 371.0
0.31000, 279.0
0.32000, 235.0
0.33000, 207.0
0.34000, 232.0
0.35000, 234.0
0.36000, 258.0
0.37000, 277.0
0.38000, 297.0
0.39000, 313.0
0.40000, 334.0
0.41000, 361.0
0.42000, 385.0
0.43000, 396.0
0.44000, 444.0
0.45000, 442.0
0.46000, 475.0
0.47000, 509.0
0.48000, 561.0
0.49000, 591.0
0.50000, 653.0
0.51000, 693.0
0.52000, 730.0
0.53000, 698.0
0.54000, 655.0
0.55000, 581.0
0.56000, 516.0
0.57000, 488.0
0.58000, 459.0
0.59000, 429.0
0.60000, 457.0
0.61000, 430.0
0.62000, 485.0
0.63000, 476.0
0.64000, 495.0
0.65000, 508.0
0.66000, 525.0
0.67000, 509.0
0.68000, 503.0
0.69000, 508.0
0.70000, 517.0
0.71000, 516.0
0.72000, 552.0
0.73000, 551.0
0.74000, 531.0
0.75000, 534.0
0.76000, 513.0
0.77000, 532.0
0.78000, 521.0
0.79000, 519.0
0.80000, 521.0
0.81000, 530.0
0.82000, 509.0
0.83000, 525.0
0.84000, 499.0
0.85000, 510.0
0.86000, 514.0
0.87000, 526.0
0.88000, 498.0
0.89000, 514.0
0.90000, 533.0
0.91000, 512.0
0.92000, 499.0
0.93000, 515.0
0.94000, 523.0
0.95000, 503.0
0.96000, 508.0
0.97000, 475.0
0.98000, 491.0
0.99000, 460.0
1.00000, 473.0
1.01000, 475.0
1.02000, 468.0
1.03000, 452.0
1.04000, 499.0
1.05000, 462.0
1.06000, 493.0
1.07000, 490.0
1.08000, 453.0
1.09000, 459.0
1.10000, 408.0
1.11000, 459.0
1.12000, 406.0
1.13000, 418.0
1.14000, 431.0
1.15000, 423.0
1.16000, 420.0
1.17000, 418.0
1.18000, 391.0
1.19000, 402.0
1.20000, 411.0
1.21000, 416.0
1.22000, 403.0
1.23000, 385.0
1.24000, 392.0
1.25000, 404.0
1.26000, 378.0
1.27000, 409.0
1.28000, 406.0
1.29000, 390.0
1.30000, 378.0
1.31000, 368.0
1.32000, 377.0
1.33000, 374.0
1.34000, 376.0
1.35000, 360.0
1.36000, 369.0
1.37000, 366.0
1.38000, 361.0
1.39000, 345.0
1.40000, 361.0
1.41000, 359.0
1.42000, 365.0
1.43000, 381.0
1.44000, 374.0
1.45000, 389.0
1.46000, 366.0
1.47000, 375.0
1.48000, 392.0
1.49000, 383.0
1.50000, 374.0
1.51000, 397.0
1.52000, 378.0
1.53000, 386.0
1.54000, 365.0
1.55000, 374.0
1.56000, 353.0
1.57000, 379.0
1.58000, 388.0
1.59000, 359.0
1.60000, 368.0
1.61000, 389.0
1.62000, 392.0
1.63000, 426.0
1.64000, 590.0
1.65000, 862.0
1.66000, 1481.0
1.67000, 2494.0
1.68000, 4190.0
1.69000, 6659.0
1.70000, 9806.0
1.71000, 13280.0
1.72000, 16987.0
1.73000, 19646.0
1.74000, 20793.0
1.75000, 20436.0
1.76000, 18765.0
1.77000, 15589.0
1.78000, 11970.0
1.79000, 8728.0
1.80000, 5919.0
1.81000, 3898.0
1.82000, 2721.0
1.83000, 1945.0
1.84000, 1529.0
1.85000, 1201.0
1.86000, 1020.0
1.87000, 854.0
1.88000, 646.0
1.89000, 518.0
1.90000, 408.0
1.91000, 309.0
1.92000, 257.0
1.93000, 212.0
1.94000, 197.0
1.95000, 195.0
1.96000, 187.0
1.97000, 167.0
1.98000, 181.0
1.99000, 163.0
2.00000, 185.0
2.01000, 172.0
2.02000, 156.0
2.03000, 175.0
2.04000, 162.0
2.05000, 162.0
2.06000, 180.0
2.07000, 171.0
2.08000, 173.0
2.09000, 168.0
2.10000, 165.0
2.11000, 171.0
2.12000, 172.0
2.13000, 161.0
2.14000, 155.0
2.15000, 153.0
2.16000, 147.0
2.17000, 151.0
2.18000, 141.0
2.19000, 146.0
2.20000, 139.0
2.21000, 137.0
2.22000, 134.0
2.23000, 144.0
2.24000, 145.0
2.25000, 142.0
2.26000, 131.0
2.27000, 135.0
2.28000, 145.0
2.29000, 143.0
2.30000, 150.0
2.31000, 133.0
2.32000, 141.0
2.33000, 130.0
2.34000, 137.0
2.35000, 133.0
2.36000, 146.0
2.37000, 130.0
2.38000, 132.0
2.39000, 111.0
2.40000, 133.0
2.41000, 140.0
2.42000, 135.0
2.43000, 131.0
2.44000, 125.0
2.45000, 123.0
2.46000, 117.0
2.47000, 120.0
2.48000, 130.0
2.49000, 126.0
2.50000, 122.0
2.51000, 125.0
2.52000, 120.0
2.53000, 125.0
2.54000, 109.0
2.55000, 125.0
2.56000, 111.0
2.57000, 116.0
2.58000, 114.0
2.59000, 121.0
2.60000, 117.0
2.61000, 112.0
2.62000, 119.0
2.63000, 113.0
2.64000, 115.0
2.65000, 98.0
2.66000, 110.0
2.67000, 96.0
2.68000, 114.0
2.69000, 90.0
2.70000, 93.0
2.71000, 124.0
2.72000, 97.0
2.73000, 103.0
2.74000, 114.0
2.75000, 102.0
2.76000, 100.0
2.77000, 103.0
2.78000, 102.0
2.79000, 93.0
2.80000, 96.0
2.81000, 97.0
2.82000, 94.0
2.83000, 91.0
2.84000, 92.0
2.85000, 91.0
2.86000, 87.0
2.87000, 89.0
2.88000, 79.0
2.89000, 97.0
2.90000, 92.0
2.91000, 95.0
2.92000, 99.0
2.93000, 81.0
2.94000, 90.0
2.95000, 93.0
2.96000, 85.0
2.97000, 84.0
2.98000, 93.0
2.99000, 82.0
3.00000, 90.0
3.01000, 77.0
3.02000, 86.0
3.03000, 95.0
3.04000, 67.0
3.05000, 86.0
3.06000, 76.0
3.07000, 84.0
3.08000, 86.0
3.09000, 72.0
3.10000, 75.0
3.11000, 82.0
3.12000, 80.0
3.13000, 77.0
3.14000, 64.0
3.15000, 78.0
3.16000, 87.0
3.17000, 64.0
3.18000, 66.0
3.19000, 64.0
3.20000, 70.0
3.21000, 67.0
3.22000, 72.0
3.23000, 74.0
3.24000, 73.0
3.25000, 73.0
3.26000, 71.0
3.27000, 65.0
3.28000, 64.0
3.29000, 69.0
3.30000, 57.0
3.31000, 70.0
3.32000, 66.0
3.33000, 64.0
3.34000, 71.0
3.35000, 63.0
3.36000, 65.0
3.37000, 65.0
3.38000, 61.0
3.39000, 76.0
3.40000, 66.0
3.41000, 66.0
3.42000, 74.0
3.43000, 64.0
3.44000, 86.0
3.45000, 87.0
3.46000, 79.0
3.47000, 79.0
3.48000, 108.0
3.49000, 101.0
3.50000, 89.0
3.51000, 88.0
3.52000, 83.0
3.53000, 75.0
3.54000, 79.0
3.55000, 72.0
3.56000, 63.0
3.57000, 61.0
3.58000, 61.0
3.59000, 53.0
3.60000, 49.0
3.61000, 55.0
3.62000, 48.0
3.63000, 42.0
3.64000, 51.0
3.65000, 51.0
3.66000, 43.0
3.67000, 53.0
3.68000, 48.0
3.69000, 50.0
3.70000, 40.0
3.71000, 50.0
3.72000, 45.0
3.73000, 43.0
3.74000, 45.0
3.75000, 50.0
3.76000, 44.0
3.77000, 42.0
3.78000, 34.0
3.79000, 33.0
3.80000, 48.0
3.81000, 46.0
3.82000, 41.0
3.83000, 43.0
3.84000, 38.0
3.85000, 41.0
3.86000, 40.0
3.87000, 33.0
3.88000, 37.0
3.89000, 38.0
3.90000, 36.0
3.91000, 50.0
3.92000, 28.0
3.93000, 42.0
3.94000, 31.0
3.95000, 40.0
3.96000, 39.0
3.97000, 36.0
3.98000, 33.0
3.99000, 36.0
4.00000, 48.0
4.01000, 34.0
4.02000, 38.0
4.03000, 32.0
4.04000, 33.0
4.05000, 26.0
4.06000, 34.0
4.07000, 22.0
4.08000, 39.0
4.09000, 33.0
4.10000, 36.0
4.11000, 29.0
4.12000, 34.0
4.13000, 28.0
4.14000, 22.0
4.15000, 27.0
4.16000, 32.0
4.17000, 26.0
4.18000, 20.0
4.19000, 24.0
4.20000, 24.0
4.21000, 25.0
4.22000, 18.0
4.23000, 22.0
4.24000, 26.0
4.25000, 29.0
4.26000, 28.0
4.27000, 23.0
4.28000, 24.0
4.29000, 27.0
4.30000, 18.0
4.31000, 20.0
4.32000, 20.0
4.33000, 24.0
4.34000, 23.0
4.35000, 24.0
4.36000, 16.0
4.37000, 21.0
4.38000, 20.0
4.39000, 25.0
4.40000, 19.0
4.41000, 18.0
4.42000, 20.0
4.43000, 20.0
4.44000, 19.0
4.45000, 18.0
4.46000, 21.0
4.47000, 16.0
4.48000, 14.0
4.49000, 17.0
4.50000, 16.0
4.51000, 16.0
4.52000, 14.0
4.53000, 8.0
4.54000, 20.0
4.55000, 18.0
4.56000, 15.0
4.57000, 14.0
4.58000, 15.0
4.59000, 14.0
4.60000, 11.0
4.61000, 16.0
4.62000, 9.0
4.63000, 17.0
4.64000, 11.0
4.65000, 12.0
4.66000, 17.0
4.67000, 10.0
4.68000, 14.0
4.69000, 13.0
4.70000, 12.0
4.71000, 12.0
4.72000, 8.0
4.73000, 12.0
4.74000, 9.0
4.75000, 9.0
4.76000, 9.0
4.77000, 9.0
4.78000, 13.0
4.79000, 15.0
4.80000, 7.0
4.81000, 11.0
4.82000, 7.0
4.83000, 8.0
4.84000, 5.0
4.85000, 9.0
4.86000, 8.0
4.87000, 5.0
4.88000, 9.0
4.89000, 6.0
4.90000, 4.0
4.91000, 6.0
4.92000, 3.0
4.93000, 6.0
4.94000, 3.0
4.95000, 2.0
4.96000, 3.0
4.97000, 1.0
4.98000, 4.0
4.99000, 4.0
5.00000, 1.0
5.01000, 1.0
5.02000, 1.0
5.03000, 2.0
5.04000, 1.0
5.05000, 1.0
5.06000, 0.0
5.07000, 1.0
5.08000, 1.0
5.09000, 0.0
5.10000, 1.0
5.11000, 0.0
5.12000, 0.0
5.13000, 2.0
5.14000, 1.0
5.15000, 1.0
5.16000, 1.0
5.17000, 0.0
5.18000, 2.0
5.19000, 0.0
5.20000, 0.0
5.21000, 0.0
5.22000, 1.0
5.23000, 1.0
5.24000, 2.0
5.25000, 0.0
5.26000, 0.0
5.27000, 1.0
5.28000, 1.0
5.29000, 0.0
5.30000, 0.0
5.31000, 1.0
5.32000, 0.0
5.33000, 0.0
5.34000, 1.0
5.35000, 0.0
5.36000, 0.0
5.37000, 0.0
5.38000, 0.0
5.39000, 0.0
5.40000, 0.0
5.41000, 1.0
5.42000, 0.0
5.43000, 0.0
5.44000, 0.0
5.45000, 0.0
5.46000, 0.0
5.47000, 0.0
5.48000, 0.0
5.49000, 0.0
5.50000, 2.0
5.51000, 1.0
5.52000, 0.0
5.53000, 0.0
5.54000, 0.0
5.55000, 0.0
5.56000, 1.0
5.57000, 0.0
5.58000, 0.0
5.59000, 1.0
5.60000, 0.0
5.61000, 1.0
5.62000, 0.0
5.63000, 0.0
5.64000, 1.0
5.65000, 1.0
5.66000, 0.0
5.67000, 0.0
5.68000, 0.0
5.69000, 0.0
5.70000, 0.0
5.71000, 1.0
5.72000, 1.0
5.73000, 0.0
5.74000, 2.0
5.75000, 2.0
5.76000, 0.0
5.77000, 0.0
5.78000, 0.0
5.79000, 0.0
5.80000, 1.0
5.81000, 0.0
5.82000, 0.0
5.83000, 0.0
5.84000, 0.0
5.85000, 0.0
5.86000, 0.0
5.87000, 0.0
5.88000, 0.0
5.89000, 1.0
5.90000, 0.0
5.91000, 0.0
5.92000, 0.0
5.93000, 0.0
5.94000, 0.0
5.95000, 0.0
5.96000, 2.0
5.97000, 0.0
5.98000, 0.0
5.99000, 0.0
6.00000, 0.0
6.01000, 0.0
6.02000, 0.0
6.03000, 0.0
6.04000, 0.0
6.05000, 0.0
6.06000, 0.0
6.07000, 0.0
6.08000, 0.0
6.09000, 1.0
6.10000, 0.0
6.11000, 0.0
6.12000, 0.0
6.13000, 1.0
6.14000, 0.0
6.15000, 0.0
6.16000, 0.0
6.17000, 1.0
6.18000, 0.0
6.19000, 0.0
6.20000, 0.0
6.21000, 0.0
6.22000, 0.0
6.23000, 0.0
6.24000, 0.0
6.25000, 0.0
6.26000, 0.0
6.27000, 0.0
6.28000, 0.0
6.29000, 0.0
6.30000, 0.0
6.31000, 0.0
6.32000, 0.0
6.33000, 0.0
6.34000, 0.0
6.35000, 1.0
6.36000, 0.0
6.37000, 0.0
6.38000, 0.0
6.39000, 0.0
6.40000, 0.0
6.41000, 0.0
6.42000, 0.0
6.43000, 0.0
6.44000, 0.0
6.45000, 0.0
6.46000, 0.0
6.47000, 0.0
6.48000, 0.0
6.49000, 0.0
6.50000, 0.0
6.51000, 0.0
6.52000, 1.0
6.53000, 1.0
6.54000, 0.0
6.55000, 0.0
6.56000, 0.0
6.57000, 0.0
6.58000, 0.0
6.59000, 0.0
6.60000, 0.0
6.61000, 0.0
6.62000, 0.0
6.63000, 0.0
6.64000, 1.0
6.65000, 0.0
6.66000, 0.0
6.67000, 0.0
6.68000, 0.0
6.69000, 0.0
6.70000, 0.0
6.71000, 0.0
6.72000, 0.0
6.73000, 0.0
6.74000, 0.0
6.75000, 0.0
6.76000, 0.0
6.77000, 0.0
6.78000, 0.0
6.79000, 0.0
6.80000, 0.0
6.81000, 0.0
6.82000, 0.0
6.83000, 0.0
6.84000, 0.0
6.85000, 0.0
6.86000, 0.0
6.87000, 0.0
6.88000, 0.0
6.89000, 0.0
6.90000, 0.0
6.91000, 0.0
6.92000, 0.0
6.93000, 0.0
6.94000, 0.0
6.95000, 0.0
6.96000, 0.0
6.97000, 0.0
6.98000, 0.0
6.99000, 0.0
7.00000, 0.0
7.01000, 0.0
7.02000, 0.0
7.03000, 0.0
7.04000, 0.0
7.05000, 0.0
7.06000, 0.0
7.07000, 0.0
7.08000, 0.0
7.09000, 0.0
7.10000, 0.0
7.11000, 0.0
7.12000, 0.0
7.13000, 0.0
7.14000, 0.0
7.15000, 0.0
7.16000, 0.0
7.17000, 0.0
7.18000, 0.0
7.19000, 0.0
7.20000, 0.0
7.21000, 0.0
7.22000, 0.0
7.23000, 0.0
7.24000, 0.0
7.25000, 0.0
7.26000, 0.0
7.27000, 0.0
7.28000, 0.0
7.29000, 0.0
7.30000, 0.0
7.31000, 0.0
7.32000, 0.0
7.33000, 0.0
7.34000, 0.0
7.35000, 0.0
7.36000, 0.0
7.37000, 0.0
7.38000, 0.0
7.39000, 0.0
7.40000, 0.0
7.41000, 0.0
7.42000, 0.0
7.43000, 0.0
7.44000, 0.0
7.45000, 0.0
7.46000, 0.0
7.47000, 0.0
7.48000, 0.0
7.49000, 0.0
7.50000, 0.0
7.51000, 0.0
7.52000, 0.0
7.53000, 0.0
7.54000, 0.0
7.55000, 0.0
7.56000, 0.0
7.57000, 0.0
7.58000, 0.0
7.59000, 0.0
7.60000, 0.0
7.61000, 0.0
7.62000, 0.0
7.63000, 0.0
7.64000, 0.0
7.65000, 0.0
7.66000, 0.0
7.67000, 0.0
7.68000, 0.0
7.69000, 0.0
7.70000, 0.0
7.71000, 0.0
7.72000, 0.0
7.73000, 0.0
7.74000, 0.0
7.75000, 0.0
7.76000, 0.0
7.77000, 0.0
7.78000, 0.0
7.79000, 0.0
7.80000, 0.0
7.81000, 0.0
7.82000, 0.0
7.83000, 0.0
7.84000, 0.0
7.85000, 0.0
7.86000, 0.0
7.87000, 0.0
7.88000, 0.0
7.89000, 0.0
7.90000, 0.0
7.91000, 0.0
7.92000, 0.0
7.93000, 0.0
7.94000, 0.0
7.95000, 0.0
7.96000, 0.0
7.97000, 0.0
7.98000, 0.0
7.99000, 0.0
8.00000, 0.0
8.01000, 0.0
8.02000, 0.0
8.03000, 0.0
8.04000, 0.0
8.05000, 0.0
8.06000, 0.0
8.07000, 0.0
8.08000, 0.0
8.09000, 0.0
8.10000, 0.0
8.11000, 0.0
8.12000, 0.0
8.13000, 0.0
8.14000, 0.0
8.15000, 0.0
8.16000, 0.0
8.17000, 0.0
8.18000, 0.0
8.19000, 0.0
8.20000, 0.0
8.21000, 0.0
8.22000, 0.0
8.23000, 0.0
8.24000, 0.0
8.25000, 0.0
8.26000, 0.0
8.27000, 0.0
8.28000, 0.0
8.29000, 0.0
8.30000, 0.0
8.31000, 0.0
8.32000, 0.0
8.33000, 0.0
8.34000, 0.0
8.35000, 0.0
8.36000, 0.0
8.37000, 0.0
8.38000, 0.0
8.39000, 0.0
8.40000, 0.0
8.41000, 0.0
8.42000, 0.0
8.43000, 0.0
8.44000, 0.0
8.45000, 0.0
8.46000, 0.0
8.47000, 0.0
8.48000, 0.0
8.49000, 0.0
8.50000, 0.0
8.51000, 0.0
8.52000, 0.0
8.53000, 0.0
8.54000, 0.0
8.55000, 0.0
8.56000, 0.0
8.57000, 0.0
8.58000, 0.0
8.59000, 0.0
8.60000, 0.0
8.61000, 0.0
8.62000, 0.0
8.63000, 0.0
8.64000, 0.0
8.65000, 0.0
8.66000, 0.0
8.67000, 0.0
8.68000, 0.0
8.69000, 0.0
8.70000, 0.0
8.71000, 0.0
8.72000, 0.0
8.73000, 0.0
8.74000, 0.0
8.75000, 0.0
8.76000, 0.0
8.77000, 0.0
8.78000, 0.0
8.79000, 0.0
8.80000, 0.0
8.81000, 0.0
8.82000, 0.0
8.83000, 0.0
8.84000, 0.0
8.85000, 0.0
8.86000, 0.0
8.87000, 0.0
8.88000, 0.0
8.89000, 0.0
8.90000, 0.0
8.91000, 0.0
8.92000, 0.0
8.93000, 0.0
8.94000, 0.0
8.95000, 0.0
8.96000, 0.0
8.97000, 0.0
8.98000, 0.0
8.99000, 0.0
9.00000, 0.0
9.01000, 0.0
9.02000, 0.0
9.03000, 0.0
9.04000, 0.0
9.05000, 0.0
9.06000, 0.0
9.07000, 0.0
9.08000, 0.0
9.09000, 0.0
9.10000, 0.0
9.11000, 0.0
9.12000, 0.0
9.13000, 0.0
9.14000, 0.0
9.15000, 0.0
9.16000, 0.0
9.17000, 0.0
9.18000, 0.0
9.19000, 0.0
9.20000, 0.0
9.21000, 0.0
9.22000, 0.0
9.23000, 0.0
9.24000, 0.0
9.25000, 0.0
9.26000, 0.0
9.27000, 0.0
9.28000, 0.0
9.29000, 0.0
9.30000, 0.0
9.31000, 0.0
9.32000, 0.0
9.33000, 0.0
9.34000, 0.0
9.35000, 0.0
9.36000, 0.0
9.37000, 0.0
9.38000, 0.0
9.39000, 0.0
9.40000, 0.0
9.41000, 0.0
9.42000, 0.0
9.43000, 0.0
9.44000, 0.0
9.45000, 0.0
9.46000, 0.0
9.47000, 0.0
9.48000, 0.0
9.49000, 0.0
9.50000, 0.0
9.51000, 0.0
9.52000, 0.0
9.53000, 0.0
9.54000, 0.0
9.55000, 0.0
9.56000, 0.0
9.57000, 0.0
9.58000, 0.0
9.59000, 0.0
9.60000, 0.0
9.61000, 0.0
9.62000, 0.0
9.63000, 0.0
9.64000, 0.0
9.65000, 0.0
9.66000, 0.0
9.67000, 0.0
9.68000, 0.0
9.69000, 0.0
9.70000, 0.0
9.71000, 0.0
9.72000, 0.0
9.73000, 0.0
9.74000, 0.0
9.75000, 0.0
9.76000, 0.0
9.77000, 0.0
9.78000, 0.0
9.79000, 0.0
9.80000, 0.0
9.81000, 0.0
9.82000, 0.0
9.83000, 0.0
9.84000, 0.0
9.85000, 0.0
9.86000, 0.0
9.87000, 0.0
9.88000, 0.0
9.89000, 0.0
9.90000, 0.0
9.91000, 0.0
9.92000, 0.0
9.93000, 0.0
9.94000, 0.0
9.95000, 0.0
9.96000, 0.0
9.97000, 0.0
9.98000, 0.0
9.99000, 0.0
10.00000, 0.0
10.01000, 0.0
10.02000, 0.0
10.03000, 0.0
10.04000, 0.0
10.05000, 0.0
10.06000, 0.0
10.07000, 0.0
10.08000, 0.0
10.09000, 0.0
10.10000, 0.0
10.11000, 0.0
10.12000, 0.0
10.13000, 0.0
10.13500, 0.0
#ENDOFDATA   :