File: dat/msa/Cu-Cal-20kV/Cu-20kV-S4-P4-2K.msa
#FORMAT      : EMSA/MAS Spectral Data File
#VERSION     : 1.0
#TITLE       : Cu-20kV-S4-P4-2K
#DATE        : 16-SEP-2016
#TIME        : 15:44
#OWNER       : John Minter
#NPOINTS     : 2048.0
#NCOLUMNS    : 1.0
#XUNITS      : keV
#YUNITS      : counts
#DATATYPE    : XY
#XPERCHAN    : 0.005
#OFFSET      : -0.1
#SIGNALTYPE  : EDS
#CHOFFSET    : 20.0
#LIVETIME    : 99.9738
#REALTIME    : 113.418
#BEAMKV      : 20.0
#PROBECUR    : 0.88
#MAGCAM      : 5000.0
#XTILTSTGE   : 0.0
#AZIMANGLE   : 0.0
#ELEVANGLE   : 35.0
#XPOSITION mm: -0.0160
#YPOSITION mm: -0.1610
#ZPOSITION mm: 5.0000
##OXINSTPT   : 4
##OXINSTSTROB: 47.97
##OXINSTELEMS: 29,6,8
##OXINSTLABEL: 29, 8.048, Cu
##OXINSTLABEL: 29, 8.905, Cu
##OXINSTLABEL: 29, 0.930, Cu
##OXINSTLABEL: 29, 0.832, Cu
##OXINSTLABEL: 29, 0.811, Cu
##OXINSTLABEL: 6, 0.277, C
##OXINSTLABEL: 8, 0.525, O
#SPECTRUM    : Spectral Data Starts Here
-0.10000, 0.0
-0.09000, 0.0
-0.08000, 1.0
-0.07000, 2.0
-0.06000, 7.0
-0.05000, 23.0
-0.04000, 68.0
-0.03000, 240.0
-0.02000, 469.0
-0.01000, 890.0
0.00000, 1299.0
0.01000, 1663.0
0.02000, 1946.0
0.03000, 2225.0
0.04000, 2268.0
0.05000, 2071.0
0.06000, 1589.0
0.07000, 994.0
0.08000, 516.0
0.09000, 272.0
0.10000, 184.0
0.11000, 165.0
0.12000, 124.0
0.13000, 116.0
0.14000, 141.0
0.15000, 123.0
0.16000, 126.0
0.17000, 139.0
0.18000, 143.0
0.19000, 140.0
0.20000, 126.0
0.21000, 138.0
0.22000, 180.0
0.23000, 205.0
0.24000, 271.0
0.25000, 333.0
0.26000, 455.0
0.27000, 513.0
0.28000, 498.0
0.29000, 440.0
0.30000, 325.0
0.31000, 262.0
0.32000, 182.0
0.33000, 167.0
0.34000, 162.0
0.35000, 168.0
0.36000, 187.0
0.37000, 180.0
0.38000, 188.0
0.39000, 224.0
0.40000, 211.0
0.41000, 241.0
0.42000, 263.0
0.43000, 271.0
0.44000, 303.0
0.45000, 322.0
0.46000, 347.0
0.47000, 371.0
0.48000, 396.0
0.49000, 456.0
0.50000, 505.0
0.51000, 600.0
0.52000, 577.0
0.53000, 596.0
0.54000, 584.0
0.55000, 514.0
0.56000, 460.0
0.57000, 446.0
0.58000, 464.0
0.59000, 447.0
0.60000, 492.0
0.61000, 514.0
0.62000, 524.0
0.63000, 559.0
0.64000, 559.0
0.65000, 640.0
0.66000, 676.0
0.67000, 711.0
0.68000, 707.0
0.69000, 753.0
0.70000, 766.0
0.71000, 820.0
0.72000, 882.0
0.73000, 890.0
0.74000, 1068.0
0.75000, 1278.0
0.76000, 1627.0
0.77000, 2173.0
0.78000, 2916.0
0.79000, 3670.0
0.80000, 4332.0
0.81000, 4862.0
0.82000, 5073.0
0.83000, 4787.0
0.84000, 4387.0
0.85000, 4161.0
0.86000, 4725.0
0.87000, 6487.0
0.88000, 10161.0
0.89000, 16121.0
0.90000, 23861.0
0.91000, 32265.0
0.92000, 39414.0
0.93000, 42914.0
0.94000, 41465.0
0.95000, 36221.0
0.96000, 27989.0
0.97000, 19637.0
0.98000, 12338.0
0.99000, 7140.0
1.00000, 3777.0
1.01000, 1877.0
1.02000, 1078.0
1.03000, 663.0
1.04000, 467.0
1.05000, 383.0
1.06000, 337.0
1.07000, 286.0
1.08000, 266.0
1.09000, 240.0
1.10000, 227.0
1.11000, 220.0
1.12000, 209.0
1.13000, 241.0
1.14000, 240.0
1.15000, 211.0
1.16000, 243.0
1.17000, 232.0
1.18000, 236.0
1.19000, 236.0
1.20000, 263.0
1.21000, 248.0
1.22000, 228.0
1.23000, 265.0
1.24000, 295.0
1.25000, 249.0
1.26000, 261.0
1.27000, 277.0
1.28000, 305.0
1.29000, 262.0
1.30000, 296.0
1.31000, 290.0
1.32000, 287.0
1.33000, 311.0
1.34000, 279.0
1.35000, 292.0
1.36000, 294.0
1.37000, 273.0
1.38000, 298.0
1.39000, 304.0
1.40000, 313.0
1.41000, 332.0
1.42000, 320.0
1.43000, 318.0
1.44000, 352.0
1.45000, 379.0
1.46000, 385.0
1.47000, 376.0
1.48000, 406.0
1.49000, 417.0
1.50000, 409.0
1.51000, 382.0
1.52000, 398.0
1.53000, 372.0
1.54000, 368.0
1.55000, 373.0
1.56000, 349.0
1.57000, 364.0
1.58000, 365.0
1.59000, 374.0
1.60000, 349.0
1.61000, 355.0
1.62000, 371.0
1.63000, 365.0
1.64000, 347.0
1.65000, 361.0
1.66000, 374.0
1.67000, 357.0
1.68000, 367.0
1.69000, 387.0
1.70000, 386.0
1.71000, 387.0
1.72000, 400.0
1.73000, 426.0
1.74000, 406.0
1.75000, 391.0
1.76000, 425.0
1.77000, 415.0
1.78000, 414.0
1.79000, 416.0
1.80000, 409.0
1.81000, 422.0
1.82000, 409.0
1.83000, 423.0
1.84000, 439.0
1.85000, 453.0
1.86000, 445.0
1.87000, 454.0
1.88000, 448.0
1.89000, 451.0
1.90000, 435.0
1.91000, 421.0
1.92000, 400.0
1.93000, 410.0
1.94000, 408.0
1.95000, 400.0
1.96000, 398.0
1.97000, 412.0
1.98000, 412.0
1.99000, 397.0
2.00000, 395.0
2.01000, 400.0
2.02000, 394.0
2.03000, 413.0
2.04000, 403.0
2.05000, 404.0
2.06000, 410.0
2.07000, 407.0
2.08000, 418.0
2.09000, 419.0
2.10000, 417.0
2.11000, 409.0
2.12000, 408.0
2.13000, 445.0
2.14000, 430.0
2.15000, 413.0
2.16000, 414.0
2.17000, 416.0
2.18000, 421.0
2.19000, 442.0
2.20000, 429.0
2.21000, 406.0
2.22000, 426.0
2.23000, 425.0
2.24000, 430.0
2.25000, 451.0
2.26000, 430.0
2.27000, 431.0
2.28000, 447.0
2.29000, 421.0
2.30000, 453.0
2.31000, 460.0
2.32000, 472.0
2.33000, 429.0
2.34000, 421.0
2.35000, 436.0
2.36000, 428.0
2.37000, 422.0
2.38000, 444.0
2.39000, 445.0
2.40000, 425.0
2.41000, 427.0
2.42000, 415.0
2.43000, 415.0
2.44000, 411.0
2.45000, 434.0
2.46000, 447.0
2.47000, 424.0
2.48000, 446.0
2.49000, 440.0
2.50000, 437.0
2.51000, 451.0
2.52000, 446.0
2.53000, 413.0
2.54000, 461.0
2.55000, 431.0
2.56000, 444.0
2.57000, 426.0
2.58000, 435.0
2.59000, 426.0
2.60000, 431.0
2.61000, 445.0
2.62000, 425.0
2.63000, 442.0
2.64000, 438.0
2.65000, 448.0
2.66000, 456.0
2.67000, 457.0
2.68000, 442.0
2.69000, 423.0
2.70000, 433.0
2.71000, 425.0
2.72000, 417.0
2.73000, 409.0
2.74000, 399.0
2.75000, 426.0
2.76000, 382.0
2.77000, 430.0
2.78000, 430.0
2.79000, 420.0
2.80000, 432.0
2.81000, 415.0
2.82000, 442.0
2.83000, 413.0
2.84000, 440.0
2.85000, 426.0
2.86000, 427.0
2.87000, 415.0
2.88000, 425.0
2.89000, 426.0
2.90000, 424.0
2.91000, 404.0
2.92000, 420.0
2.93000, 424.0
2.94000, 405.0
2.95000, 412.0
2.96000, 449.0
2.97000, 405.0
2.98000, 424.0
2.99000, 426.0
3.00000, 409.0
3.01000, 411.0
3.02000, 406.0
3.03000, 416.0
3.04000, 413.0
3.05000, 447.0
3.06000, 409.0
3.07000, 411.0
3.08000, 413.0
3.09000, 423.0
3.10000, 388.0
3.11000, 422.0
3.12000, 402.0
3.13000, 437.0
3.14000, 410.0
3.15000, 405.0
3.16000, 389.0
3.17000, 421.0
3.18000, 426.0
3.19000, 408.0
3.20000, 376.0
3.21000, 378.0
3.22000, 415.0
3.23000, 371.0
3.24000, 401.0
3.25000, 420.0
3.26000, 397.0
3.27000, 382.0
3.28000, 360.0
3.29000, 395.0
3.30000, 407.0
3.31000, 397.0
3.32000, 390.0
3.33000, 386.0
3.34000, 416.0
3.35000, 380.0
3.36000, 418.0
3.37000, 391.0
3.38000, 400.0
3.39000, 372.0
3.40000, 388.0
3.41000, 382.0
3.42000, 372.0
3.43000, 382.0
3.44000, 376.0
3.45000, 390.0
3.46000, 376.0
3.47000, 351.0
3.48000, 392.0
3.49000, 391.0
3.50000, 352.0
3.51000, 386.0
3.52000, 378.0
3.53000, 372.0
3.54000, 397.0
3.55000, 362.0
3.56000, 359.0
3.57000, 383.0
3.58000, 373.0
3.59000, 381.0
3.60000, 351.0
3.61000, 380.0
3.62000, 395.0
3.63000, 376.0
3.64000, 361.0
3.65000, 366.0
3.66000, 353.0
3.67000, 345.0
3.68000, 361.0
3.69000, 346.0
3.70000, 366.0
3.71000, 364.0
3.72000, 373.0
3.73000, 372.0
3.74000, 349.0
3.75000, 357.0
3.76000, 367.0
3.77000, 368.0
3.78000, 356.0
3.79000, 364.0
3.80000, 321.0
3.81000, 356.0
3.82000, 349.0
3.83000, 363.0
3.84000, 368.0
3.85000, 365.0
3.86000, 386.0
3.87000, 342.0
3.88000, 303.0
3.89000, 349.0
3.90000, 318.0
3.91000, 343.0
3.92000, 322.0
3.93000, 370.0
3.94000, 328.0
3.95000, 356.0
3.96000, 354.0
3.97000, 331.0
3.98000, 338.0
3.99000, 336.0
4.00000, 356.0
4.01000, 338.0
4.02000, 319.0
4.03000, 329.0
4.04000, 352.0
4.05000, 330.0
4.06000, 325.0
4.07000, 343.0
4.08000, 326.0
4.09000, 352.0
4.10000, 302.0
4.11000, 315.0
4.12000, 330.0
4.13000, 313.0
4.14000, 320.0
4.15000, 362.0
4.16000, 315.0
4.17000, 323.0
4.18000, 325.0
4.19000, 332.0
4.20000, 302.0
4.21000, 331.0
4.22000, 319.0
4.23000, 296.0
4.24000, 312.0
4.25000, 326.0
4.26000, 303.0
4.27000, 327.0
4.28000, 306.0
4.29000, 315.0
4.30000, 316.0
4.31000, 314.0
4.32000, 308.0
4.33000, 320.0
4.34000, 301.0
4.35000, 319.0
4.36000, 311.0
4.37000, 297.0
4.38000, 319.0
4.39000, 300.0
4.40000, 307.0
4.41000, 300.0
4.42000, 274.0
4.43000, 274.0
4.44000, 297.0
4.45000, 326.0
4.46000, 291.0
4.47000, 279.0
4.48000, 296.0
4.49000, 290.0
4.50000, 286.0
4.51000, 291.0
4.52000, 299.0
4.53000, 298.0
4.54000, 279.0
4.55000, 298.0
4.56000, 285.0
4.57000, 272.0
4.58000, 287.0
4.59000, 254.0
4.60000, 292.0
4.61000, 288.0
4.62000, 294.0
4.63000, 264.0
4.64000, 292.0
4.65000, 295.0
4.66000, 289.0
4.67000, 283.0
4.68000, 273.0
4.69000, 304.0
4.70000, 276.0
4.71000, 294.0
4.72000, 262.0
4.73000, 266.0
4.74000, 290.0
4.75000, 282.0
4.76000, 301.0
4.77000, 256.0
4.78000, 288.0
4.79000, 282.0
4.80000, 305.0
4.81000, 260.0
4.82000, 270.0
4.83000, 295.0
4.84000, 292.0
4.85000, 288.0
4.86000, 276.0
4.87000, 244.0
4.88000, 272.0
4.89000, 278.0
4.90000, 285.0
4.91000, 244.0
4.92000, 250.0
4.93000, 266.0
4.94000, 272.0
4.95000, 249.0
4.96000, 268.0
4.97000, 239.0
4.98000, 264.0
4.99000, 265.0
5.00000, 297.0
5.01000, 258.0
5.02000, 262.0
5.03000, 278.0
5.04000, 265.0
5.05000, 245.0
5.06000, 252.0
5.07000, 255.0
5.08000, 274.0
5.09000, 261.0
5.10000, 271.0
5.11000, 230.0
5.12000, 248.0
5.13000, 259.0
5.14000, 251.0
5.15000, 245.0
5.16000, 253.0
5.17000, 248.0
5.18000, 268.0
5.19000, 262.0
5.20000, 255.0
5.21000, 246.0
5.22000, 250.0
5.23000, 261.0
5.24000, 256.0
5.25000, 233.0
5.26000, 262.0
5.27000, 230.0
5.28000, 240.0
5.29000, 266.0
5.30000, 240.0
5.31000, 272.0
5.32000, 235.0
5.33000, 226.0
5.34000, 247.0
5.35000, 219.0
5.36000, 254.0
5.37000, 228.0
5.38000, 241.0
5.39000, 226.0
5.40000, 235.0
5.41000, 228.0
5.42000, 239.0
5.43000, 228.0
5.44000, 220.0
5.45000, 226.0
5.46000, 235.0
5.47000, 232.0
5.48000, 256.0
5.49000, 222.0
5.50000, 233.0
5.51000, 229.0
5.52000, 209.0
5.53000, 219.0
5.54000, 223.0
5.55000, 235.0
5.56000, 226.0
5.57000, 217.0
5.58000, 252.0
5.59000, 218.0
5.60000, 239.0
5.61000, 225.0
5.62000, 219.0
5.63000, 222.0
5.64000, 193.0
5.65000, 228.0
5.66000, 195.0
5.67000, 213.0
5.68000, 221.0
5.69000, 237.0
5.70000, 225.0
5.71000, 216.0
5.72000, 237.0
5.73000, 226.0
5.74000, 224.0
5.75000, 229.0
5.76000, 240.0
5.77000, 197.0
5.78000, 232.0
5.79000, 213.0
5.80000, 228.0
5.81000, 229.0
5.82000, 232.0
5.83000, 199.0
5.84000, 210.0
5.85000, 211.0
5.86000, 213.0
5.87000, 208.0
5.88000, 204.0
5.89000, 211.0
5.90000, 190.0
5.91000, 224.0
5.92000, 196.0
5.93000, 226.0
5.94000, 210.0
5.95000, 173.0
5.96000, 221.0
5.97000, 201.0
5.98000, 184.0
5.99000, 207.0
6.00000, 220.0
6.01000, 217.0
6.02000, 182.0
6.03000, 209.0
6.04000, 214.0
6.05000, 210.0
6.06000, 205.0
6.07000, 229.0
6.08000, 193.0
6.09000, 212.0
6.10000, 185.0
6.11000, 206.0
6.12000, 199.0
6.13000, 219.0
6.14000, 193.0
6.15000, 214.0
6.16000, 182.0
6.17000, 201.0
6.18000, 196.0
6.19000, 201.0
6.20000, 216.0
6.21000, 199.0
6.22000, 202.0
6.23000, 192.0
6.24000, 200.0
6.25000, 193.0
6.26000, 202.0
6.27000, 200.0
6.28000, 211.0
6.29000, 217.0
6.30000, 213.0
6.31000, 210.0
6.32000, 207.0
6.33000, 208.0
6.34000, 219.0
6.35000, 210.0
6.36000, 217.0
6.37000, 214.0
6.38000, 186.0
6.39000, 212.0
6.40000, 201.0
6.41000, 194.0
6.42000, 184.0
6.43000, 190.0
6.44000, 188.0
6.45000, 179.0
6.46000, 204.0
6.47000, 169.0
6.48000, 177.0
6.49000, 189.0
6.50000, 187.0
6.51000, 158.0
6.52000, 189.0
6.53000, 181.0
6.54000, 183.0
6.55000, 201.0
6.56000, 193.0
6.57000, 192.0
6.58000, 173.0
6.59000, 174.0
6.60000, 199.0
6.61000, 173.0
6.62000, 199.0
6.63000, 193.0
6.64000, 180.0
6.65000, 173.0
6.66000, 196.0
6.67000, 172.0
6.68000, 174.0
6.69000, 164.0
6.70000, 156.0
6.71000, 175.0
6.72000, 172.0
6.73000, 183.0
6.74000, 191.0
6.75000, 191.0
6.76000, 184.0
6.77000, 178.0
6.78000, 180.0
6.79000, 177.0
6.80000, 182.0
6.81000, 187.0
6.82000, 185.0
6.83000, 177.0
6.84000, 180.0
6.85000, 181.0
6.86000, 164.0
6.87000, 167.0
6.88000, 160.0
6.89000, 172.0
6.90000, 175.0
6.91000, 159.0
6.92000, 184.0
6.93000, 184.0
6.94000, 163.0
6.95000, 156.0
6.96000, 181.0
6.97000, 163.0
6.98000, 181.0
6.99000, 172.0
7.00000, 165.0
7.01000, 166.0
7.02000, 167.0
7.03000, 154.0
7.04000, 176.0
7.05000, 170.0
7.06000, 165.0
7.07000, 168.0
7.08000, 146.0
7.09000, 155.0
7.10000, 172.0
7.11000, 163.0
7.12000, 175.0
7.13000, 170.0
7.14000, 167.0
7.15000, 163.0
7.16000, 153.0
7.17000, 150.0
7.18000, 183.0
7.19000, 151.0
7.20000, 156.0
7.21000, 156.0
7.22000, 152.0
7.23000, 166.0
7.24000, 176.0
7.25000, 167.0
7.26000, 169.0
7.27000, 161.0
7.28000, 160.0
7.29000, 138.0
7.30000, 146.0
7.31000, 165.0
7.32000, 162.0
7.33000, 154.0
7.34000, 154.0
7.35000, 166.0
7.36000, 174.0
7.37000, 157.0
7.38000, 157.0
7.39000, 157.0
7.40000, 150.0
7.41000, 152.0
7.42000, 167.0
7.43000, 154.0
7.44000, 175.0
7.45000, 158.0
7.46000, 145.0
7.47000, 154.0
7.48000, 148.0
7.49000, 145.0
7.50000, 159.0
7.51000, 174.0
7.52000, 146.0
7.53000, 146.0
7.54000, 159.0
7.55000, 169.0
7.56000, 143.0
7.57000, 144.0
7.58000, 156.0
7.59000, 163.0
7.60000, 145.0
7.61000, 136.0
7.62000, 164.0
7.63000, 141.0
7.64000, 138.0
7.65000, 141.0
7.66000, 142.0
7.67000, 141.0
7.68000, 153.0
7.69000, 151.0
7.70000, 159.0
7.71000, 148.0
7.72000, 151.0
7.73000, 168.0
7.74000, 146.0
7.75000, 167.0
7.76000, 157.0
7.77000, 178.0
7.78000, 161.0
7.79000, 157.0
7.80000, 170.0
7.81000, 174.0
7.82000, 184.0
7.83000, 196.0
7.84000, 245.0
7.85000, 268.0
7.86000, 339.0
7.87000, 421.0
7.88000, 517.0
7.89000, 715.0
7.90000, 965.0
7.91000, 1255.0
7.92000, 1605.0
7.93000, 2110.0
7.94000, 2672.0
7.95000, 3378.0
7.96000, 4164.0
7.97000, 4918.0
7.98000, 5697.0
7.99000, 6687.0
8.00000, 7402.0
8.01000, 8064.0
8.02000, 8647.0
8.03000, 8884.0
8.04000, 9064.0
8.05000, 8794.0
8.06000, 8517.0
8.07000, 8014.0
8.08000, 7381.0
8.09000, 6545.0
8.10000, 5734.0
8.11000, 4912.0
8.12000, 4046.0
8.13000, 3176.0
8.14000, 2616.0
8.15000, 2028.0
8.16000, 1589.0
8.17000, 1164.0
8.18000, 889.0
8.19000, 638.0
8.20000, 509.0
8.21000, 347.0
8.22000, 290.0
8.23000, 236.0
8.24000, 223.0
8.25000, 184.0
8.26000, 169.0
8.27000, 138.0
8.28000, 151.0
8.29000, 148.0
8.30000, 157.0
8.31000, 142.0
8.32000, 137.0
8.33000, 131.0
8.34000, 151.0
8.35000, 142.0
8.36000, 129.0
8.37000, 125.0
8.38000, 136.0
8.39000, 139.0
8.40000, 141.0
8.41000, 137.0
8.42000, 119.0
8.43000, 133.0
8.44000, 134.0
8.45000, 130.0
8.46000, 128.0
8.47000, 145.0
8.48000, 130.0
8.49000, 128.0
8.50000, 127.0
8.51000, 117.0
8.52000, 121.0
8.53000, 135.0
8.54000, 128.0
8.55000, 129.0
8.56000, 142.0
8.57000, 132.0
8.58000, 138.0
8.59000, 124.0
8.60000, 134.0
8.61000, 125.0
8.62000, 138.0
8.63000, 138.0
8.64000, 141.0
8.65000, 152.0
8.66000, 136.0
8.67000, 147.0
8.68000, 147.0
8.69000, 165.0
8.70000, 156.0
8.71000, 170.0
8.72000, 163.0
8.73000, 177.0
8.74000, 203.0
8.75000, 231.0
8.76000, 272.0
8.77000, 294.0
8.78000, 361.0
8.79000, 436.0
8.80000, 480.0
8.81000, 612.0
8.82000, 680.0
8.83000, 788.0
8.84000, 902.0
8.85000, 990.0
8.86000, 1114.0
8.87000, 1165.0
8.88000, 1194.0
8.89000, 1271.0
8.90000, 1288.0
8.91000, 1342.0
8.92000, 1192.0
8.93000, 1166.0
8.94000, 1095.0
8.95000, 1017.0
8.96000, 955.0
8.97000, 823.0
8.98000, 764.0
8.99000, 628.0
9.00000, 502.0
9.01000, 436.0
9.02000, 372.0
9.03000, 311.0
9.04000, 263.0
9.05000, 209.0
9.06000, 190.0
9.07000, 170.0
9.08000, 144.0
9.09000, 144.0
9.10000, 112.0
9.11000, 119.0
9.12000, 100.0
9.13000, 97.0
9.14000, 95.0
9.15000, 97.0
9.16000, 85.0
9.17000, 99.0
9.18000, 88.0
9.19000, 96.0
9.20000, 85.0
9.21000, 95.0
9.22000, 88.0
9.23000, 93.0
9.24000, 93.0
9.25000, 93.0
9.26000, 88.0
9.27000, 90.0
9.28000, 97.0
9.29000, 89.0
9.30000, 87.0
9.31000, 84.0
9.32000, 96.0
9.33000, 102.0
9.34000, 96.0
9.35000, 85.0
9.36000, 98.0
9.37000, 93.0
9.38000, 93.0
9.39000, 86.0
9.40000, 90.0
9.41000, 90.0
9.42000, 86.0
9.43000, 77.0
9.44000, 78.0
9.45000, 92.0
9.46000, 90.0
9.47000, 91.0
9.48000, 97.0
9.49000, 79.0
9.50000, 87.0
9.51000, 96.0
9.52000, 95.0
9.53000, 80.0
9.54000, 94.0
9.55000, 86.0
9.56000, 85.0
9.57000, 92.0
9.58000, 74.0
9.59000, 98.0
9.60000, 80.0
9.61000, 83.0
9.62000, 85.0
9.63000, 89.0
9.64000, 88.0
9.65000, 88.0
9.66000, 84.0
9.67000, 92.0
9.68000, 91.0
9.69000, 82.0
9.70000, 86.0
9.71000, 84.0
9.72000, 92.0
9.73000, 84.0
9.74000, 85.0
9.75000, 85.0
9.76000, 81.0
9.77000, 101.0
9.78000, 107.0
9.79000, 99.0
9.80000, 105.0
9.81000, 89.0
9.82000, 103.0
9.83000, 101.0
9.84000, 80.0
9.85000, 93.0
9.86000, 87.0
9.87000, 92.0
9.88000, 92.0
9.89000, 88.0
9.90000, 89.0
9.91000, 89.0
9.92000, 77.0
9.93000, 86.0
9.94000, 89.0
9.95000, 81.0
9.96000, 87.0
9.97000, 90.0
9.98000, 91.0
9.99000, 73.0
10.00000, 81.0
10.01000, 86.0
10.02000, 91.0
10.03000, 84.0
10.04000, 72.0
10.05000, 77.0
10.06000, 80.0
10.07000, 78.0
10.08000, 75.0
10.09000, 83.0
10.10000, 77.0
10.11000, 84.0
10.12000, 88.0
10.13000, 79.0
10.13500, 83.0
#ENDOFDATA   :