File: dat/msa/Cu-Cal-20kV/Cu-20kV-S5-P4-2K.msa
#FORMAT      : EMSA/MAS Spectral Data File
#VERSION     : 1.0
#TITLE       : Cu-20kV-S5-2K
#DATE        : 16-SEP-2016
#TIME        : 15:50
#OWNER       : John Minter
#NPOINTS     : 2048.0
#NCOLUMNS    : 1.0
#XUNITS      : keV
#YUNITS      : counts
#DATATYPE    : XY
#XPERCHAN    : 0.005
#OFFSET      : -0.1
#SIGNALTYPE  : EDS
#CHOFFSET    : 20.0
#LIVETIME    : 100.247
#REALTIME    : 169.326
#BEAMKV      : 20.0
#PROBECUR    : 3.74
#MAGCAM      : 5000.0
#XTILTSTGE   : 0.0
#AZIMANGLE   : 0.0
#ELEVANGLE   : 35.0
#XPOSITION mm: -0.0100
#YPOSITION mm: -0.2010
#ZPOSITION mm: 5.0000
##OXINSTPT   : 4
##OXINSTSTROB: 48.17
##OXINSTELEMS: 29,6,8
##OXINSTLABEL: 29, 8.048, Cu
##OXINSTLABEL: 29, 8.905, Cu
##OXINSTLABEL: 29, 0.930, Cu
##OXINSTLABEL: 29, 0.832, Cu
##OXINSTLABEL: 29, 0.811, Cu
##OXINSTLABEL: 6, 0.277, C
##OXINSTLABEL: 8, 0.525, O
#SPECTRUM    : Spectral Data Starts Here
-0.10000, 0.0
-0.09000, 0.0
-0.08000, 0.0
-0.07000, 2.0
-0.06000, 6.0
-0.05000, 16.0
-0.04000, 70.0
-0.03000, 212.0
-0.02000, 484.0
-0.01000, 848.0
0.00000, 1260.0
0.01000, 1479.0
0.02000, 1683.0
0.03000, 1715.0
0.04000, 1564.0
0.05000, 1397.0
0.06000, 1035.0
0.07000, 740.0
0.08000, 566.0
0.09000, 484.0
0.10000, 483.0
0.11000, 498.0
0.12000, 468.0
0.13000, 443.0
0.14000, 463.0
0.15000, 482.0
0.16000, 507.0
0.17000, 483.0
0.18000, 518.0
0.19000, 535.0
0.20000, 520.0
0.21000, 614.0
0.22000, 676.0
0.23000, 808.0
0.24000, 1128.0
0.25000, 1356.0
0.26000, 1650.0
0.27000, 1896.0
0.28000, 1821.0
0.29000, 1670.0
0.30000, 1279.0
0.31000, 969.0
0.32000, 735.0
0.33000, 655.0
0.34000, 662.0
0.35000, 643.0
0.36000, 758.0
0.37000, 762.0
0.38000, 859.0
0.39000, 896.0
0.40000, 935.0
0.41000, 1009.0
0.42000, 1046.0
0.43000, 1114.0
0.44000, 1204.0
0.45000, 1316.0
0.46000, 1397.0
0.47000, 1563.0
0.48000, 1783.0
0.49000, 1940.0
0.50000, 2179.0
0.51000, 2375.0
0.52000, 2348.0
0.53000, 2387.0
0.54000, 2324.0
0.55000, 2121.0
0.56000, 2013.0
0.57000, 1922.0
0.58000, 1944.0
0.59000, 1920.0
0.60000, 2007.0
0.61000, 2109.0
0.62000, 2253.0
0.63000, 2274.0
0.64000, 2460.0
0.65000, 2582.0
0.66000, 2730.0
0.67000, 2795.0
0.68000, 2974.0
0.69000, 3062.0
0.70000, 3271.0
0.71000, 3473.0
0.72000, 3742.0
0.73000, 3912.0
0.74000, 4410.0
0.75000, 5427.0
0.76000, 6877.0
0.77000, 9148.0
0.78000, 12099.0
0.79000, 15479.0
0.80000, 18432.0
0.81000, 20747.0
0.82000, 21221.0
0.83000, 20180.0
0.84000, 18579.0
0.85000, 17508.0
0.86000, 19753.0
0.87000, 27042.0
0.88000, 42709.0
0.89000, 67570.0
0.90000, 100519.0
0.91000, 136090.0
0.92000, 165243.0
0.93000, 179424.0
0.94000, 174981.0
0.95000, 151591.0
0.96000, 118274.0
0.97000, 82637.0
0.98000, 52211.0
0.99000, 30090.0
1.00000, 16073.0
1.01000, 8454.0
1.02000, 4631.0
1.03000, 2874.0
1.04000, 2048.0
1.05000, 1640.0
1.06000, 1415.0
1.07000, 1279.0
1.08000, 1159.0
1.09000, 1056.0
1.10000, 1025.0
1.11000, 1035.0
1.12000, 1008.0
1.13000, 1027.0
1.14000, 1005.0
1.15000, 1050.0
1.16000, 1054.0
1.17000, 1042.0
1.18000, 1039.0
1.19000, 1119.0
1.20000, 1113.0
1.21000, 1113.0
1.22000, 1182.0
1.23000, 1167.0
1.24000, 1179.0
1.25000, 1133.0
1.26000, 1178.0
1.27000, 1161.0
1.28000, 1196.0
1.29000, 1245.0
1.30000, 1266.0
1.31000, 1290.0
1.32000, 1222.0
1.33000, 1273.0
1.34000, 1232.0
1.35000, 1234.0
1.36000, 1292.0
1.37000, 1301.0
1.38000, 1261.0
1.39000, 1339.0
1.40000, 1292.0
1.41000, 1395.0
1.42000, 1367.0
1.43000, 1443.0
1.44000, 1491.0
1.45000, 1593.0
1.46000, 1667.0
1.47000, 1647.0
1.48000, 1722.0
1.49000, 1808.0
1.50000, 1761.0
1.51000, 1744.0
1.52000, 1694.0
1.53000, 1704.0
1.54000, 1603.0
1.55000, 1569.0
1.56000, 1591.0
1.57000, 1562.0
1.58000, 1555.0
1.59000, 1473.0
1.60000, 1591.0
1.61000, 1607.0
1.62000, 1542.0
1.63000, 1589.0
1.64000, 1568.0
1.65000, 1596.0
1.66000, 1641.0
1.67000, 1642.0
1.68000, 1691.0
1.69000, 1719.0
1.70000, 1759.0
1.71000, 1836.0
1.72000, 1869.0
1.73000, 1998.0
1.74000, 1960.0
1.75000, 1977.0
1.76000, 2006.0
1.77000, 2055.0
1.78000, 2065.0
1.79000, 2031.0
1.80000, 2119.0
1.81000, 2249.0
1.82000, 2405.0
1.83000, 2598.0
1.84000, 2769.0
1.85000, 2960.0
1.86000, 2985.0
1.87000, 2983.0
1.88000, 2963.0
1.89000, 2739.0
1.90000, 2527.0
1.91000, 2332.0
1.92000, 2181.0
1.93000, 1974.0
1.94000, 1887.0
1.95000, 1790.0
1.96000, 1731.0
1.97000, 1785.0
1.98000, 1703.0
1.99000, 1704.0
2.00000, 1743.0
2.01000, 1741.0
2.02000, 1750.0
2.03000, 1742.0
2.04000, 1736.0
2.05000, 1682.0
2.06000, 1750.0
2.07000, 1730.0
2.08000, 1774.0
2.09000, 1705.0
2.10000, 1754.0
2.11000, 1838.0
2.12000, 1787.0
2.13000, 1804.0
2.14000, 1750.0
2.15000, 1786.0
2.16000, 1765.0
2.17000, 1757.0
2.18000, 1819.0
2.19000, 1769.0
2.20000, 1791.0
2.21000, 1798.0
2.22000, 1849.0
2.23000, 1844.0
2.24000, 1859.0
2.25000, 1816.0
2.26000, 1908.0
2.27000, 1860.0
2.28000, 1893.0
2.29000, 1896.0
2.30000, 1897.0
2.31000, 1907.0
2.32000, 1899.0
2.33000, 1902.0
2.34000, 1972.0
2.35000, 1867.0
2.36000, 1863.0
2.37000, 1856.0
2.38000, 1878.0
2.39000, 1868.0
2.40000, 1907.0
2.41000, 1842.0
2.42000, 1885.0
2.43000, 1890.0
2.44000, 1893.0
2.45000, 1883.0
2.46000, 1862.0
2.47000, 1853.0
2.48000, 1832.0
2.49000, 1858.0
2.50000, 1878.0
2.51000, 1877.0
2.52000, 1874.0
2.53000, 1874.0
2.54000, 1865.0
2.55000, 1806.0
2.56000, 1897.0
2.57000, 1804.0
2.58000, 1832.0
2.59000, 1849.0
2.60000, 1878.0
2.61000, 1879.0
2.62000, 1844.0
2.63000, 1849.0
2.64000, 1856.0
2.65000, 1869.0
2.66000, 1842.0
2.67000, 1922.0
2.68000, 1839.0
2.69000, 1865.0
2.70000, 1873.0
2.71000, 1819.0
2.72000, 1868.0
2.73000, 1822.0
2.74000, 1748.0
2.75000, 1849.0
2.76000, 1828.0
2.77000, 1828.0
2.78000, 1802.0
2.79000, 1784.0
2.80000, 1799.0
2.81000, 1841.0
2.82000, 1841.0
2.83000, 1820.0
2.84000, 1827.0
2.85000, 1817.0
2.86000, 1790.0
2.87000, 1755.0
2.88000, 1818.0
2.89000, 1810.0
2.90000, 1808.0
2.91000, 1798.0
2.92000, 1840.0
2.93000, 1809.0
2.94000, 1843.0
2.95000, 1766.0
2.96000, 1794.0
2.97000, 1777.0
2.98000, 1824.0
2.99000, 1796.0
3.00000, 1741.0
3.01000, 1734.0
3.02000, 1756.0
3.03000, 1746.0
3.04000, 1752.0
3.05000, 1742.0
3.06000, 1787.0
3.07000, 1712.0
3.08000, 1760.0
3.09000, 1797.0
3.10000, 1722.0
3.11000, 1738.0
3.12000, 1719.0
3.13000, 1704.0
3.14000, 1682.0
3.15000, 1746.0
3.16000, 1753.0
3.17000, 1705.0
3.18000, 1735.0
3.19000, 1739.0
3.20000, 1732.0
3.21000, 1755.0
3.22000, 1673.0
3.23000, 1741.0
3.24000, 1719.0
3.25000, 1680.0
3.26000, 1692.0
3.27000, 1679.0
3.28000, 1777.0
3.29000, 1704.0
3.30000, 1723.0
3.31000, 1695.0
3.32000, 1747.0
3.33000, 1725.0
3.34000, 1670.0
3.35000, 1646.0
3.36000, 1665.0
3.37000, 1688.0
3.38000, 1653.0
3.39000, 1685.0
3.40000, 1680.0
3.41000, 1620.0
3.42000, 1666.0
3.43000, 1660.0
3.44000, 1641.0
3.45000, 1654.0
3.46000, 1662.0
3.47000, 1640.0
3.48000, 1660.0
3.49000, 1608.0
3.50000, 1665.0
3.51000, 1610.0
3.52000, 1572.0
3.53000, 1653.0
3.54000, 1632.0
3.55000, 1623.0
3.56000, 1624.0
3.57000, 1622.0
3.58000, 1588.0
3.59000, 1621.0
3.60000, 1591.0
3.61000, 1601.0
3.62000, 1559.0
3.63000, 1594.0
3.64000, 1612.0
3.65000, 1587.0
3.66000, 1542.0
3.67000, 1555.0
3.68000, 1513.0
3.69000, 1587.0
3.70000, 1529.0
3.71000, 1585.0
3.72000, 1507.0
3.73000, 1523.0
3.74000, 1552.0
3.75000, 1514.0
3.76000, 1484.0
3.77000, 1531.0
3.78000, 1510.0
3.79000, 1516.0
3.80000, 1476.0
3.81000, 1523.0
3.82000, 1548.0
3.83000, 1445.0
3.84000, 1484.0
3.85000, 1492.0
3.86000, 1503.0
3.87000, 1476.0
3.88000, 1511.0
3.89000, 1465.0
3.90000, 1516.0
3.91000, 1545.0
3.92000, 1492.0
3.93000, 1477.0
3.94000, 1493.0
3.95000, 1469.0
3.96000, 1455.0
3.97000, 1469.0
3.98000, 1474.0
3.99000, 1427.0
4.00000, 1468.0
4.01000, 1369.0
4.02000, 1525.0
4.03000, 1424.0
4.04000, 1467.0
4.05000, 1432.0
4.06000, 1419.0
4.07000, 1411.0
4.08000, 1409.0
4.09000, 1401.0
4.10000, 1435.0
4.11000, 1460.0
4.12000, 1457.0
4.13000, 1454.0
4.14000, 1353.0
4.15000, 1366.0
4.16000, 1389.0
4.17000, 1378.0
4.18000, 1375.0
4.19000, 1398.0
4.20000, 1359.0
4.21000, 1425.0
4.22000, 1380.0
4.23000, 1382.0
4.24000, 1376.0
4.25000, 1365.0
4.26000, 1342.0
4.27000, 1357.0
4.28000, 1387.0
4.29000, 1343.0
4.30000, 1326.0
4.31000, 1334.0
4.32000, 1358.0
4.33000, 1361.0
4.34000, 1280.0
4.35000, 1353.0
4.36000, 1348.0
4.37000, 1314.0
4.38000, 1331.0
4.39000, 1351.0
4.40000, 1316.0
4.41000, 1297.0
4.42000, 1254.0
4.43000, 1312.0
4.44000, 1292.0
4.45000, 1285.0
4.46000, 1328.0
4.47000, 1274.0
4.48000, 1269.0
4.49000, 1251.0
4.50000, 1306.0
4.51000, 1269.0
4.52000, 1307.0
4.53000, 1275.0
4.54000, 1286.0
4.55000, 1226.0
4.56000, 1259.0
4.57000, 1214.0
4.58000, 1264.0
4.59000, 1273.0
4.60000, 1265.0
4.61000, 1248.0
4.62000, 1243.0
4.63000, 1258.0
4.64000, 1251.0
4.65000, 1234.0
4.66000, 1243.0
4.67000, 1213.0
4.68000, 1216.0
4.69000, 1239.0
4.70000, 1192.0
4.71000, 1267.0
4.72000, 1193.0
4.73000, 1218.0
4.74000, 1249.0
4.75000, 1147.0
4.76000, 1179.0
4.77000, 1219.0
4.78000, 1205.0
4.79000, 1172.0
4.80000, 1198.0
4.81000, 1185.0
4.82000, 1221.0
4.83000, 1230.0
4.84000, 1158.0
4.85000, 1183.0
4.86000, 1161.0
4.87000, 1171.0
4.88000, 1150.0
4.89000, 1190.0
4.90000, 1167.0
4.91000, 1159.0
4.92000, 1154.0
4.93000, 1168.0
4.94000, 1155.0
4.95000, 1149.0
4.96000, 1137.0
4.97000, 1142.0
4.98000, 1175.0
4.99000, 1127.0
5.00000, 1083.0
5.01000, 1124.0
5.02000, 1162.0
5.03000, 1135.0
5.04000, 1090.0
5.05000, 1104.0
5.06000, 1138.0
5.07000, 1108.0
5.08000, 1109.0
5.09000, 1084.0
5.10000, 1130.0
5.11000, 1140.0
5.12000, 1082.0
5.13000, 1093.0
5.14000, 1062.0
5.15000, 1100.0
5.16000, 1113.0
5.17000, 1077.0
5.18000, 1085.0
5.19000, 1033.0
5.20000, 1032.0
5.21000, 1042.0
5.22000, 1012.0
5.23000, 1148.0
5.24000, 1088.0
5.25000, 1087.0
5.26000, 1075.0
5.27000, 1082.0
5.28000, 1049.0
5.29000, 1026.0
5.30000, 1124.0
5.31000, 1075.0
5.32000, 1046.0
5.33000, 981.0
5.34000, 1046.0
5.35000, 981.0
5.36000, 1031.0
5.37000, 1092.0
5.38000, 1026.0
5.39000, 1089.0
5.40000, 1005.0
5.41000, 1050.0
5.42000, 1063.0
5.43000, 1019.0
5.44000, 998.0
5.45000, 997.0
5.46000, 1023.0
5.47000, 1036.0
5.48000, 1015.0
5.49000, 1001.0
5.50000, 1057.0
5.51000, 993.0
5.52000, 1002.0
5.53000, 1056.0
5.54000, 966.0
5.55000, 965.0
5.56000, 992.0
5.57000, 977.0
5.58000, 971.0
5.59000, 956.0
5.60000, 984.0
5.61000, 967.0
5.62000, 994.0
5.63000, 949.0
5.64000, 941.0
5.65000, 944.0
5.66000, 953.0
5.67000, 967.0
5.68000, 982.0
5.69000, 970.0
5.70000, 934.0
5.71000, 944.0
5.72000, 975.0
5.73000, 968.0
5.74000, 943.0
5.75000, 974.0
5.76000, 919.0
5.77000, 989.0
5.78000, 947.0
5.79000, 939.0
5.80000, 895.0
5.81000, 947.0
5.82000, 972.0
5.83000, 911.0
5.84000, 915.0
5.85000, 976.0
5.86000, 926.0
5.87000, 932.0
5.88000, 918.0
5.89000, 904.0
5.90000, 953.0
5.91000, 879.0
5.92000, 929.0
5.93000, 958.0
5.94000, 904.0
5.95000, 893.0
5.96000, 919.0
5.97000, 891.0
5.98000, 897.0
5.99000, 927.0
6.00000, 899.0
6.01000, 913.0
6.02000, 863.0
6.03000, 866.0
6.04000, 913.0
6.05000, 884.0
6.06000, 900.0
6.07000, 866.0
6.08000, 888.0
6.09000, 883.0
6.10000, 879.0
6.11000, 920.0
6.12000, 910.0
6.13000, 905.0
6.14000, 848.0
6.15000, 852.0
6.16000, 891.0
6.17000, 890.0
6.18000, 861.0
6.19000, 819.0
6.20000, 856.0
6.21000, 864.0
6.22000, 874.0
6.23000, 883.0
6.24000, 914.0
6.25000, 906.0
6.26000, 917.0
6.27000, 935.0
6.28000, 978.0
6.29000, 904.0
6.30000, 954.0
6.31000, 934.0
6.32000, 890.0
6.33000, 876.0
6.34000, 852.0
6.35000, 828.0
6.36000, 799.0
6.37000, 824.0
6.38000, 846.0
6.39000, 897.0
6.40000, 872.0
6.41000, 865.0
6.42000, 857.0
6.43000, 792.0
6.44000, 801.0
6.45000, 846.0
6.46000, 823.0
6.47000, 863.0
6.48000, 772.0
6.49000, 831.0
6.50000, 857.0
6.51000, 836.0
6.52000, 818.0
6.53000, 816.0
6.54000, 816.0
6.55000, 733.0
6.56000, 826.0
6.57000, 799.0
6.58000, 778.0
6.59000, 859.0
6.60000, 772.0
6.61000, 740.0
6.62000, 774.0
6.63000, 769.0
6.64000, 789.0
6.65000, 809.0
6.66000, 819.0
6.67000, 780.0
6.68000, 718.0
6.69000, 786.0
6.70000, 809.0
6.71000, 779.0
6.72000, 742.0
6.73000, 827.0
6.74000, 730.0
6.75000, 724.0
6.76000, 736.0
6.77000, 751.0
6.78000, 736.0
6.79000, 775.0
6.80000, 768.0
6.81000, 683.0
6.82000, 755.0
6.83000, 761.0
6.84000, 801.0
6.85000, 758.0
6.86000, 719.0
6.87000, 779.0
6.88000, 760.0
6.89000, 714.0
6.90000, 729.0
6.91000, 749.0
6.92000, 718.0
6.93000, 724.0
6.94000, 690.0
6.95000, 717.0
6.96000, 745.0
6.97000, 722.0
6.98000, 730.0
6.99000, 739.0
7.00000, 734.0
7.01000, 716.0
7.02000, 695.0
7.03000, 733.0
7.04000, 733.0
7.05000, 692.0
7.06000, 755.0
7.07000, 706.0
7.08000, 689.0
7.09000, 734.0
7.10000, 715.0
7.11000, 713.0
7.12000, 692.0
7.13000, 740.0
7.14000, 673.0
7.15000, 684.0
7.16000, 660.0
7.17000, 682.0
7.18000, 702.0
7.19000, 686.0
7.20000, 712.0
7.21000, 694.0
7.22000, 738.0
7.23000, 702.0
7.24000, 647.0
7.25000, 697.0
7.26000, 717.0
7.27000, 685.0
7.28000, 689.0
7.29000, 701.0
7.30000, 711.0
7.31000, 707.0
7.32000, 708.0
7.33000, 665.0
7.34000, 694.0
7.35000, 661.0
7.36000, 662.0
7.37000, 657.0
7.38000, 659.0
7.39000, 699.0
7.40000, 705.0
7.41000, 680.0
7.42000, 701.0
7.43000, 683.0
7.44000, 673.0
7.45000, 686.0
7.46000, 729.0
7.47000, 679.0
7.48000, 676.0
7.49000, 666.0
7.50000, 649.0
7.51000, 742.0
7.52000, 648.0
7.53000, 656.0
7.54000, 705.0
7.55000, 655.0
7.56000, 709.0
7.57000, 663.0
7.58000, 663.0
7.59000, 657.0
7.60000, 604.0
7.61000, 719.0
7.62000, 672.0
7.63000, 640.0
7.64000, 671.0
7.65000, 721.0
7.66000, 649.0
7.67000, 662.0
7.68000, 658.0
7.69000, 673.0
7.70000, 657.0
7.71000, 718.0
7.72000, 679.0
7.73000, 702.0
7.74000, 693.0
7.75000, 710.0
7.76000, 739.0
7.77000, 688.0
7.78000, 713.0
7.79000, 741.0
7.80000, 732.0
7.81000, 755.0
7.82000, 858.0
7.83000, 902.0
7.84000, 1009.0
7.85000, 1104.0
7.86000, 1426.0
7.87000, 1804.0
7.88000, 2222.0
7.89000, 2989.0
7.90000, 3941.0
7.91000, 5232.0
7.92000, 6880.0
7.93000, 8861.0
7.94000, 11317.0
7.95000, 14246.0
7.96000, 17808.0
7.97000, 20652.0
7.98000, 24514.0
7.99000, 27879.0
8.00000, 31178.0
8.01000, 34011.0
8.02000, 35950.0
8.03000, 37123.0
8.04000, 37848.0
8.05000, 37333.0
8.06000, 35754.0
8.07000, 33710.0
8.08000, 30641.0
8.09000, 27301.0
8.10000, 24175.0
8.11000, 20366.0
8.12000, 17013.0
8.13000, 13791.0
8.14000, 11007.0
8.15000, 8621.0
8.16000, 6614.0
8.17000, 5066.0
8.18000, 3834.0
8.19000, 2892.0
8.20000, 2132.0
8.21000, 1598.0
8.22000, 1236.0
8.23000, 1032.0
8.24000, 936.0
8.25000, 780.0
8.26000, 739.0
8.27000, 702.0
8.28000, 652.0
8.29000, 651.0
8.30000, 642.0
8.31000, 615.0
8.32000, 606.0
8.33000, 602.0
8.34000, 587.0
8.35000, 592.0
8.36000, 572.0
8.37000, 588.0
8.38000, 596.0
8.39000, 571.0
8.40000, 568.0
8.41000, 548.0
8.42000, 561.0
8.43000, 585.0
8.44000, 599.0
8.45000, 596.0
8.46000, 580.0
8.47000, 579.0
8.48000, 563.0
8.49000, 585.0
8.50000, 565.0
8.51000, 567.0
8.52000, 542.0
8.53000, 588.0
8.54000, 599.0
8.55000, 594.0
8.56000, 588.0
8.57000, 623.0
8.58000, 594.0
8.59000, 593.0
8.60000, 613.0
8.61000, 608.0
8.62000, 605.0
8.63000, 622.0
8.64000, 630.0
8.65000, 625.0
8.66000, 642.0
8.67000, 628.0
8.68000, 699.0
8.69000, 669.0
8.70000, 680.0
8.71000, 756.0
8.72000, 747.0
8.73000, 843.0
8.74000, 934.0
8.75000, 1027.0
8.76000, 1162.0
8.77000, 1377.0
8.78000, 1549.0
8.79000, 1823.0
8.80000, 2194.0
8.81000, 2558.0
8.82000, 2997.0
8.83000, 3475.0
8.84000, 3913.0
8.85000, 4352.0
8.86000, 4779.0
8.87000, 5146.0
8.88000, 5557.0
8.89000, 5600.0
8.90000, 5867.0
8.91000, 5744.0
8.92000, 5613.0
8.93000, 5506.0
8.94000, 5264.0
8.95000, 4940.0
8.96000, 4573.0
8.97000, 4070.0
8.98000, 3650.0
8.99000, 3245.0
9.00000, 2820.0
9.01000, 2355.0
9.02000, 2062.0
9.03000, 1740.0
9.04000, 1515.0
9.05000, 1321.0
9.06000, 1046.0
9.07000, 948.0
9.08000, 805.0
9.09000, 717.0
9.10000, 645.0
9.11000, 601.0
9.12000, 524.0
9.13000, 495.0
9.14000, 464.0
9.15000, 453.0
9.16000, 455.0
9.17000, 419.0
9.18000, 445.0
9.19000, 399.0
9.20000, 426.0
9.21000, 422.0
9.22000, 430.0
9.23000, 433.0
9.24000, 396.0
9.25000, 399.0
9.26000, 406.0
9.27000, 418.0
9.28000, 406.0
9.29000, 412.0
9.30000, 400.0
9.31000, 427.0
9.32000, 401.0
9.33000, 411.0
9.34000, 382.0
9.35000, 428.0
9.36000, 394.0
9.37000, 425.0
9.38000, 412.0
9.39000, 427.0
9.40000, 418.0
9.41000, 404.0
9.42000, 388.0
9.43000, 398.0
9.44000, 394.0
9.45000, 402.0
9.46000, 403.0
9.47000, 398.0
9.48000, 421.0
9.49000, 406.0
9.50000, 439.0
9.51000, 420.0
9.52000, 389.0
9.53000, 414.0
9.54000, 421.0
9.55000, 401.0
9.56000, 411.0
9.57000, 396.0
9.58000, 422.0
9.59000, 408.0
9.60000, 410.0
9.61000, 396.0
9.62000, 409.0
9.63000, 411.0
9.64000, 413.0
9.65000, 443.0
9.66000, 416.0
9.67000, 436.0
9.68000, 424.0
9.69000, 446.0
9.70000, 423.0
9.71000, 453.0
9.72000, 451.0
9.73000, 441.0
9.74000, 469.0
9.75000, 485.0
9.76000, 470.0
9.77000, 483.0
9.78000, 484.0
9.79000, 505.0
9.80000, 532.0
9.81000, 506.0
9.82000, 492.0
9.83000, 477.0
9.84000, 487.0
9.85000, 507.0
9.86000, 492.0
9.87000, 488.0
9.88000, 485.0
9.89000, 454.0
9.90000, 445.0
9.91000, 446.0
9.92000, 442.0
9.93000, 404.0
9.94000, 435.0
9.95000, 416.0
9.96000, 415.0
9.97000, 409.0
9.98000, 376.0
9.99000, 400.0
10.00000, 375.0
10.01000, 379.0
10.02000, 372.0
10.03000, 399.0
10.04000, 371.0
10.05000, 369.0
10.06000, 393.0
10.07000, 380.0
10.08000, 385.0
10.09000, 374.0
10.10000, 377.0
10.11000, 382.0
10.12000, 354.0
10.13000, 356.0
10.13500, 387.0
#ENDOFDATA   :