File: dat/msa/Cu-Cal-20kV/Cu-20kV-S3-P4-2K.msa
#FORMAT      : EMSA/MAS Spectral Data File
#VERSION     : 1.0
#TITLE       : Cu-20kV-S3-2K
#DATE        : 16-SEP-2016
#TIME        : 16:01
#OWNER       : John Minter
#NPOINTS     : 2048.0
#NCOLUMNS    : 1.0
#XUNITS      : keV
#YUNITS      : counts
#DATATYPE    : XY
#XPERCHAN    : 0.005
#OFFSET      : -0.1
#SIGNALTYPE  : EDS
#CHOFFSET    : 20.0
#LIVETIME    : 100.585
#REALTIME    : 103.767
#BEAMKV      : 20.0
#PROBECUR    : 0.20
#MAGCAM      : 5000.0
#XTILTSTGE   : 0.0
#AZIMANGLE   : 0.0
#ELEVANGLE   : 35.0
#XPOSITION mm: -0.0200
#YPOSITION mm: -0.2010
#ZPOSITION mm: 5.0000
##OXINSTPT   : 4
##OXINSTSTROB: 47.89
##OXINSTELEMS: 29,6,8
##OXINSTLABEL: 29, 8.048, Cu
##OXINSTLABEL: 29, 8.905, Cu
##OXINSTLABEL: 29, 0.930, Cu
##OXINSTLABEL: 29, 0.832, Cu
##OXINSTLABEL: 29, 0.811, Cu
##OXINSTLABEL: 6, 0.277, C
##OXINSTLABEL: 8, 0.525, O
#SPECTRUM    : Spectral Data Starts Here
-0.10000, 0.0
-0.09000, 0.0
-0.08000, 1.0
-0.07000, 1.0
-0.06000, 3.0
-0.05000, 24.0
-0.04000, 94.0
-0.03000, 219.0
-0.02000, 502.0
-0.01000, 871.0
0.00000, 1317.0
0.01000, 1705.0
0.02000, 2097.0
0.03000, 2187.0
0.04000, 2396.0
0.05000, 2315.0
0.06000, 1781.0
0.07000, 1046.0
0.08000, 541.0
0.09000, 196.0
0.10000, 70.0
0.11000, 47.0
0.12000, 29.0
0.13000, 31.0
0.14000, 36.0
0.15000, 25.0
0.16000, 27.0
0.17000, 31.0
0.18000, 28.0
0.19000, 30.0
0.20000, 32.0
0.21000, 33.0
0.22000, 39.0
0.23000, 46.0
0.24000, 58.0
0.25000, 98.0
0.26000, 95.0
0.27000, 111.0
0.28000, 96.0
0.29000, 111.0
0.30000, 78.0
0.31000, 56.0
0.32000, 37.0
0.33000, 41.0
0.34000, 36.0
0.35000, 39.0
0.36000, 37.0
0.37000, 48.0
0.38000, 46.0
0.39000, 48.0
0.40000, 49.0
0.41000, 55.0
0.42000, 58.0
0.43000, 56.0
0.44000, 65.0
0.45000, 63.0
0.46000, 74.0
0.47000, 88.0
0.48000, 91.0
0.49000, 105.0
0.50000, 121.0
0.51000, 106.0
0.52000, 111.0
0.53000, 125.0
0.54000, 120.0
0.55000, 118.0
0.56000, 108.0
0.57000, 106.0
0.58000, 107.0
0.59000, 111.0
0.60000, 113.0
0.61000, 127.0
0.62000, 115.0
0.63000, 129.0
0.64000, 140.0
0.65000, 152.0
0.66000, 144.0
0.67000, 156.0
0.68000, 164.0
0.69000, 184.0
0.70000, 189.0
0.71000, 186.0
0.72000, 199.0
0.73000, 222.0
0.74000, 245.0
0.75000, 301.0
0.76000, 368.0
0.77000, 487.0
0.78000, 665.0
0.79000, 845.0
0.80000, 1044.0
0.81000, 1094.0
0.82000, 1113.0
0.83000, 1069.0
0.84000, 1001.0
0.85000, 939.0
0.86000, 1080.0
0.87000, 1473.0
0.88000, 2292.0
0.89000, 3657.0
0.90000, 5516.0
0.91000, 7416.0
0.92000, 8981.0
0.93000, 9752.0
0.94000, 9437.0
0.95000, 8245.0
0.96000, 6278.0
0.97000, 4521.0
0.98000, 2804.0
0.99000, 1587.0
1.00000, 834.0
1.01000, 481.0
1.02000, 267.0
1.03000, 145.0
1.04000, 115.0
1.05000, 93.0
1.06000, 68.0
1.07000, 73.0
1.08000, 56.0
1.09000, 56.0
1.10000, 51.0
1.11000, 50.0
1.12000, 50.0
1.13000, 50.0
1.14000, 49.0
1.15000, 54.0
1.16000, 63.0
1.17000, 60.0
1.18000, 54.0
1.19000, 68.0
1.20000, 69.0
1.21000, 62.0
1.22000, 52.0
1.23000, 62.0
1.24000, 56.0
1.25000, 64.0
1.26000, 51.0
1.27000, 56.0
1.28000, 59.0
1.29000, 61.0
1.30000, 60.0
1.31000, 67.0
1.32000, 75.0
1.33000, 66.0
1.34000, 62.0
1.35000, 64.0
1.36000, 57.0
1.37000, 77.0
1.38000, 66.0
1.39000, 71.0
1.40000, 69.0
1.41000, 73.0
1.42000, 80.0
1.43000, 71.0
1.44000, 81.0
1.45000, 85.0
1.46000, 93.0
1.47000, 91.0
1.48000, 92.0
1.49000, 98.0
1.50000, 92.0
1.51000, 90.0
1.52000, 98.0
1.53000, 87.0
1.54000, 91.0
1.55000, 79.0
1.56000, 79.0
1.57000, 76.0
1.58000, 73.0
1.59000, 73.0
1.60000, 79.0
1.61000, 79.0
1.62000, 74.0
1.63000, 71.0
1.64000, 71.0
1.65000, 73.0
1.66000, 90.0
1.67000, 82.0
1.68000, 94.0
1.69000, 95.0
1.70000, 80.0
1.71000, 80.0
1.72000, 85.0
1.73000, 98.0
1.74000, 87.0
1.75000, 103.0
1.76000, 82.0
1.77000, 107.0
1.78000, 86.0
1.79000, 96.0
1.80000, 100.0
1.81000, 90.0
1.82000, 89.0
1.83000, 86.0
1.84000, 102.0
1.85000, 80.0
1.86000, 89.0
1.87000, 98.0
1.88000, 81.0
1.89000, 90.0
1.90000, 90.0
1.91000, 93.0
1.92000, 108.0
1.93000, 93.0
1.94000, 88.0
1.95000, 98.0
1.96000, 92.0
1.97000, 85.0
1.98000, 96.0
1.99000, 93.0
2.00000, 78.0
2.01000, 88.0
2.02000, 86.0
2.03000, 100.0
2.04000, 101.0
2.05000, 83.0
2.06000, 104.0
2.07000, 100.0
2.08000, 94.0
2.09000, 93.0
2.10000, 92.0
2.11000, 90.0
2.12000, 109.0
2.13000, 99.0
2.14000, 89.0
2.15000, 92.0
2.16000, 100.0
2.17000, 94.0
2.18000, 103.0
2.19000, 101.0
2.20000, 91.0
2.21000, 99.0
2.22000, 111.0
2.23000, 94.0
2.24000, 95.0
2.25000, 94.0
2.26000, 95.0
2.27000, 94.0
2.28000, 105.0
2.29000, 85.0
2.30000, 102.0
2.31000, 101.0
2.32000, 99.0
2.33000, 100.0
2.34000, 102.0
2.35000, 102.0
2.36000, 105.0
2.37000, 112.0
2.38000, 83.0
2.39000, 101.0
2.40000, 98.0
2.41000, 99.0
2.42000, 96.0
2.43000, 89.0
2.44000, 103.0
2.45000, 93.0
2.46000, 110.0
2.47000, 98.0
2.48000, 108.0
2.49000, 102.0
2.50000, 90.0
2.51000, 106.0
2.52000, 90.0
2.53000, 96.0
2.54000, 103.0
2.55000, 90.0
2.56000, 109.0
2.57000, 98.0
2.58000, 98.0
2.59000, 106.0
2.60000, 92.0
2.61000, 98.0
2.62000, 102.0
2.63000, 103.0
2.64000, 99.0
2.65000, 103.0
2.66000, 91.0
2.67000, 93.0
2.68000, 101.0
2.69000, 91.0
2.70000, 102.0
2.71000, 84.0
2.72000, 96.0
2.73000, 98.0
2.74000, 99.0
2.75000, 98.0
2.76000, 93.0
2.77000, 121.0
2.78000, 87.0
2.79000, 104.0
2.80000, 96.0
2.81000, 107.0
2.82000, 87.0
2.83000, 97.0
2.84000, 93.0
2.85000, 98.0
2.86000, 91.0
2.87000, 87.0
2.88000, 97.0
2.89000, 93.0
2.90000, 91.0
2.91000, 97.0
2.92000, 93.0
2.93000, 83.0
2.94000, 95.0
2.95000, 96.0
2.96000, 78.0
2.97000, 100.0
2.98000, 87.0
2.99000, 96.0
3.00000, 82.0
3.01000, 91.0
3.02000, 92.0
3.03000, 88.0
3.04000, 95.0
3.05000, 87.0
3.06000, 91.0
3.07000, 88.0
3.08000, 75.0
3.09000, 89.0
3.10000, 91.0
3.11000, 90.0
3.12000, 101.0
3.13000, 84.0
3.14000, 104.0
3.15000, 92.0
3.16000, 96.0
3.17000, 92.0
3.18000, 92.0
3.19000, 94.0
3.20000, 85.0
3.21000, 86.0
3.22000, 98.0
3.23000, 83.0
3.24000, 103.0
3.25000, 92.0
3.26000, 100.0
3.27000, 102.0
3.28000, 97.0
3.29000, 93.0
3.30000, 76.0
3.31000, 84.0
3.32000, 99.0
3.33000, 80.0
3.34000, 86.0
3.35000, 94.0
3.36000, 99.0
3.37000, 89.0
3.38000, 84.0
3.39000, 78.0
3.40000, 87.0
3.41000, 81.0
3.42000, 80.0
3.43000, 79.0
3.44000, 88.0
3.45000, 90.0
3.46000, 82.0
3.47000, 104.0
3.48000, 79.0
3.49000, 84.0
3.50000, 84.0
3.51000, 82.0
3.52000, 86.0
3.53000, 91.0
3.54000, 94.0
3.55000, 75.0
3.56000, 82.0
3.57000, 89.0
3.58000, 94.0
3.59000, 87.0
3.60000, 99.0
3.61000, 87.0
3.62000, 81.0
3.63000, 82.0
3.64000, 69.0
3.65000, 91.0
3.66000, 85.0
3.67000, 84.0
3.68000, 71.0
3.69000, 78.0
3.70000, 69.0
3.71000, 71.0
3.72000, 78.0
3.73000, 90.0
3.74000, 80.0
3.75000, 78.0
3.76000, 90.0
3.77000, 83.0
3.78000, 83.0
3.79000, 86.0
3.80000, 87.0
3.81000, 89.0
3.82000, 75.0
3.83000, 63.0
3.84000, 88.0
3.85000, 75.0
3.86000, 85.0
3.87000, 84.0
3.88000, 84.0
3.89000, 68.0
3.90000, 72.0
3.91000, 75.0
3.92000, 80.0
3.93000, 78.0
3.94000, 79.0
3.95000, 84.0
3.96000, 69.0
3.97000, 69.0
3.98000, 83.0
3.99000, 66.0
4.00000, 71.0
4.01000, 84.0
4.02000, 75.0
4.03000, 80.0
4.04000, 73.0
4.05000, 84.0
4.06000, 73.0
4.07000, 75.0
4.08000, 77.0
4.09000, 84.0
4.10000, 70.0
4.11000, 73.0
4.12000, 68.0
4.13000, 74.0
4.14000, 63.0
4.15000, 95.0
4.16000, 69.0
4.17000, 76.0
4.18000, 66.0
4.19000, 73.0
4.20000, 69.0
4.21000, 77.0
4.22000, 74.0
4.23000, 81.0
4.24000, 67.0
4.25000, 70.0
4.26000, 61.0
4.27000, 65.0
4.28000, 72.0
4.29000, 61.0
4.30000, 73.0
4.31000, 65.0
4.32000, 76.0
4.33000, 77.0
4.34000, 62.0
4.35000, 59.0
4.36000, 77.0
4.37000, 73.0
4.38000, 62.0
4.39000, 67.0
4.40000, 64.0
4.41000, 67.0
4.42000, 69.0
4.43000, 65.0
4.44000, 73.0
4.45000, 69.0
4.46000, 69.0
4.47000, 66.0
4.48000, 63.0
4.49000, 65.0
4.50000, 52.0
4.51000, 65.0
4.52000, 82.0
4.53000, 58.0
4.54000, 70.0
4.55000, 58.0
4.56000, 70.0
4.57000, 70.0
4.58000, 50.0
4.59000, 72.0
4.60000, 61.0
4.61000, 55.0
4.62000, 69.0
4.63000, 69.0
4.64000, 66.0
4.65000, 60.0
4.66000, 75.0
4.67000, 67.0
4.68000, 63.0
4.69000, 66.0
4.70000, 64.0
4.71000, 57.0
4.72000, 62.0
4.73000, 56.0
4.74000, 75.0
4.75000, 59.0
4.76000, 54.0
4.77000, 82.0
4.78000, 59.0
4.79000, 57.0
4.80000, 58.0
4.81000, 65.0
4.82000, 59.0
4.83000, 69.0
4.84000, 58.0
4.85000, 75.0
4.86000, 62.0
4.87000, 61.0
4.88000, 70.0
4.89000, 64.0
4.90000, 71.0
4.91000, 54.0
4.92000, 51.0
4.93000, 61.0
4.94000, 54.0
4.95000, 62.0
4.96000, 72.0
4.97000, 43.0
4.98000, 60.0
4.99000, 56.0
5.00000, 60.0
5.01000, 58.0
5.02000, 50.0
5.03000, 69.0
5.04000, 57.0
5.05000, 55.0
5.06000, 62.0
5.07000, 66.0
5.08000, 66.0
5.09000, 56.0
5.10000, 57.0
5.11000, 45.0
5.12000, 53.0
5.13000, 67.0
5.14000, 44.0
5.15000, 57.0
5.16000, 54.0
5.17000, 58.0
5.18000, 52.0
5.19000, 52.0
5.20000, 66.0
5.21000, 52.0
5.22000, 55.0
5.23000, 64.0
5.24000, 66.0
5.25000, 51.0
5.26000, 58.0
5.27000, 58.0
5.28000, 55.0
5.29000, 54.0
5.30000, 58.0
5.31000, 52.0
5.32000, 69.0
5.33000, 56.0
5.34000, 45.0
5.35000, 60.0
5.36000, 58.0
5.37000, 55.0
5.38000, 49.0
5.39000, 56.0
5.40000, 57.0
5.41000, 45.0
5.42000, 59.0
5.43000, 49.0
5.44000, 38.0
5.45000, 56.0
5.46000, 60.0
5.47000, 51.0
5.48000, 41.0
5.49000, 39.0
5.50000, 46.0
5.51000, 54.0
5.52000, 54.0
5.53000, 40.0
5.54000, 51.0
5.55000, 53.0
5.56000, 47.0
5.57000, 60.0
5.58000, 62.0
5.59000, 56.0
5.60000, 48.0
5.61000, 47.0
5.62000, 44.0
5.63000, 48.0
5.64000, 46.0
5.65000, 37.0
5.66000, 45.0
5.67000, 56.0
5.68000, 60.0
5.69000, 43.0
5.70000, 48.0
5.71000, 48.0
5.72000, 48.0
5.73000, 52.0
5.74000, 42.0
5.75000, 46.0
5.76000, 51.0
5.77000, 46.0
5.78000, 49.0
5.79000, 43.0
5.80000, 47.0
5.81000, 58.0
5.82000, 66.0
5.83000, 34.0
5.84000, 54.0
5.85000, 56.0
5.86000, 43.0
5.87000, 36.0
5.88000, 39.0
5.89000, 50.0
5.90000, 67.0
5.91000, 49.0
5.92000, 43.0
5.93000, 49.0
5.94000, 47.0
5.95000, 39.0
5.96000, 51.0
5.97000, 44.0
5.98000, 52.0
5.99000, 53.0
6.00000, 54.0
6.01000, 51.0
6.02000, 56.0
6.03000, 44.0
6.04000, 43.0
6.05000, 36.0
6.06000, 40.0
6.07000, 42.0
6.08000, 54.0
6.09000, 52.0
6.10000, 46.0
6.11000, 42.0
6.12000, 40.0
6.13000, 54.0
6.14000, 47.0
6.15000, 45.0
6.16000, 40.0
6.17000, 35.0
6.18000, 40.0
6.19000, 49.0
6.20000, 48.0
6.21000, 42.0
6.22000, 45.0
6.23000, 52.0
6.24000, 41.0
6.25000, 48.0
6.26000, 37.0
6.27000, 39.0
6.28000, 64.0
6.29000, 52.0
6.30000, 46.0
6.31000, 55.0
6.32000, 46.0
6.33000, 47.0
6.34000, 39.0
6.35000, 39.0
6.36000, 43.0
6.37000, 48.0
6.38000, 45.0
6.39000, 40.0
6.40000, 44.0
6.41000, 31.0
6.42000, 40.0
6.43000, 52.0
6.44000, 51.0
6.45000, 32.0
6.46000, 36.0
6.47000, 54.0
6.48000, 51.0
6.49000, 42.0
6.50000, 58.0
6.51000, 48.0
6.52000, 33.0
6.53000, 33.0
6.54000, 47.0
6.55000, 48.0
6.56000, 46.0
6.57000, 36.0
6.58000, 38.0
6.59000, 48.0
6.60000, 47.0
6.61000, 47.0
6.62000, 41.0
6.63000, 34.0
6.64000, 36.0
6.65000, 40.0
6.66000, 32.0
6.67000, 41.0
6.68000, 38.0
6.69000, 39.0
6.70000, 39.0
6.71000, 41.0
6.72000, 27.0
6.73000, 37.0
6.74000, 46.0
6.75000, 45.0
6.76000, 45.0
6.77000, 43.0
6.78000, 36.0
6.79000, 42.0
6.80000, 37.0
6.81000, 41.0
6.82000, 38.0
6.83000, 33.0
6.84000, 47.0
6.85000, 35.0
6.86000, 33.0
6.87000, 39.0
6.88000, 43.0
6.89000, 34.0
6.90000, 29.0
6.91000, 29.0
6.92000, 31.0
6.93000, 51.0
6.94000, 43.0
6.95000, 30.0
6.96000, 41.0
6.97000, 47.0
6.98000, 46.0
6.99000, 41.0
7.00000, 48.0
7.01000, 35.0
7.02000, 30.0
7.03000, 37.0
7.04000, 32.0
7.05000, 35.0
7.06000, 39.0
7.07000, 34.0
7.08000, 33.0
7.09000, 43.0
7.10000, 40.0
7.11000, 44.0
7.12000, 33.0
7.13000, 37.0
7.14000, 33.0
7.15000, 46.0
7.16000, 48.0
7.17000, 32.0
7.18000, 41.0
7.19000, 27.0
7.20000, 29.0
7.21000, 44.0
7.22000, 41.0
7.23000, 38.0
7.24000, 25.0
7.25000, 25.0
7.26000, 39.0
7.27000, 42.0
7.28000, 33.0
7.29000, 40.0
7.30000, 43.0
7.31000, 23.0
7.32000, 33.0
7.33000, 38.0
7.34000, 38.0
7.35000, 38.0
7.36000, 33.0
7.37000, 38.0
7.38000, 40.0
7.39000, 35.0
7.40000, 34.0
7.41000, 41.0
7.42000, 32.0
7.43000, 40.0
7.44000, 35.0
7.45000, 37.0
7.46000, 33.0
7.47000, 37.0
7.48000, 31.0
7.49000, 42.0
7.50000, 30.0
7.51000, 36.0
7.52000, 31.0
7.53000, 30.0
7.54000, 27.0
7.55000, 47.0
7.56000, 42.0
7.57000, 40.0
7.58000, 23.0
7.59000, 40.0
7.60000, 33.0
7.61000, 33.0
7.62000, 34.0
7.63000, 31.0
7.64000, 22.0
7.65000, 29.0
7.66000, 41.0
7.67000, 37.0
7.68000, 29.0
7.69000, 31.0
7.70000, 34.0
7.71000, 32.0
7.72000, 32.0
7.73000, 37.0
7.74000, 46.0
7.75000, 31.0
7.76000, 40.0
7.77000, 41.0
7.78000, 42.0
7.79000, 36.0
7.80000, 41.0
7.81000, 42.0
7.82000, 41.0
7.83000, 49.0
7.84000, 58.0
7.85000, 66.0
7.86000, 85.0
7.87000, 98.0
7.88000, 117.0
7.89000, 169.0
7.90000, 210.0
7.91000, 275.0
7.92000, 376.0
7.93000, 499.0
7.94000, 607.0
7.95000, 765.0
7.96000, 951.0
7.97000, 1115.0
7.98000, 1337.0
7.99000, 1458.0
8.00000, 1706.0
8.01000, 1775.0
8.02000, 1997.0
8.03000, 2042.0
8.04000, 2006.0
8.05000, 2047.0
8.06000, 1943.0
8.07000, 1829.0
8.08000, 1663.0
8.09000, 1457.0
8.10000, 1290.0
8.11000, 1094.0
8.12000, 910.0
8.13000, 754.0
8.14000, 597.0
8.15000, 465.0
8.16000, 339.0
8.17000, 264.0
8.18000, 179.0
8.19000, 137.0
8.20000, 108.0
8.21000, 76.0
8.22000, 65.0
8.23000, 55.0
8.24000, 43.0
8.25000, 34.0
8.26000, 29.0
8.27000, 30.0
8.28000, 27.0
8.29000, 28.0
8.30000, 29.0
8.31000, 32.0
8.32000, 26.0
8.33000, 24.0
8.34000, 26.0
8.35000, 30.0
8.36000, 31.0
8.37000, 32.0
8.38000, 29.0
8.39000, 26.0
8.40000, 25.0
8.41000, 35.0
8.42000, 31.0
8.43000, 30.0
8.44000, 30.0
8.45000, 34.0
8.46000, 26.0
8.47000, 30.0
8.48000, 28.0
8.49000, 28.0
8.50000, 24.0
8.51000, 27.0
8.52000, 24.0
8.53000, 36.0
8.54000, 32.0
8.55000, 36.0
8.56000, 29.0
8.57000, 28.0
8.58000, 26.0
8.59000, 38.0
8.60000, 30.0
8.61000, 37.0
8.62000, 32.0
8.63000, 32.0
8.64000, 29.0
8.65000, 32.0
8.66000, 36.0
8.67000, 27.0
8.68000, 30.0
8.69000, 41.0
8.70000, 33.0
8.71000, 33.0
8.72000, 46.0
8.73000, 46.0
8.74000, 56.0
8.75000, 56.0
8.76000, 55.0
8.77000, 68.0
8.78000, 84.0
8.79000, 101.0
8.80000, 108.0
8.81000, 120.0
8.82000, 162.0
8.83000, 177.0
8.84000, 199.0
8.85000, 221.0
8.86000, 251.0
8.87000, 263.0
8.88000, 270.0
8.89000, 299.0
8.90000, 300.0
8.91000, 272.0
8.92000, 270.0
8.93000, 261.0
8.94000, 238.0
8.95000, 234.0
8.96000, 205.0
8.97000, 204.0
8.98000, 154.0
8.99000, 121.0
9.00000, 106.0
9.01000, 105.0
9.02000, 79.0
9.03000, 62.0
9.04000, 71.0
9.05000, 43.0
9.06000, 40.0
9.07000, 31.0
9.08000, 28.0
9.09000, 31.0
9.10000, 29.0
9.11000, 29.0
9.12000, 22.0
9.13000, 22.0
9.14000, 24.0
9.15000, 22.0
9.16000, 21.0
9.17000, 23.0
9.18000, 24.0
9.19000, 17.0
9.20000, 22.0
9.21000, 21.0
9.22000, 24.0
9.23000, 24.0
9.24000, 22.0
9.25000, 22.0
9.26000, 22.0
9.27000, 21.0
9.28000, 20.0
9.29000, 24.0
9.30000, 24.0
9.31000, 22.0
9.32000, 21.0
9.33000, 17.0
9.34000, 23.0
9.35000, 16.0
9.36000, 21.0
9.37000, 21.0
9.38000, 24.0
9.39000, 24.0
9.40000, 25.0
9.41000, 18.0
9.42000, 16.0
9.43000, 21.0
9.44000, 18.0
9.45000, 19.0
9.46000, 21.0
9.47000, 23.0
9.48000, 25.0
9.49000, 24.0
9.50000, 22.0
9.51000, 22.0
9.52000, 14.0
9.53000, 15.0
9.54000, 14.0
9.55000, 18.0
9.56000, 18.0
9.57000, 23.0
9.58000, 22.0
9.59000, 25.0
9.60000, 27.0
9.61000, 14.0
9.62000, 20.0
9.63000, 18.0
9.64000, 18.0
9.65000, 18.0
9.66000, 20.0
9.67000, 17.0
9.68000, 24.0
9.69000, 18.0
9.70000, 19.0
9.71000, 17.0
9.72000, 20.0
9.73000, 16.0
9.74000, 15.0
9.75000, 21.0
9.76000, 17.0
9.77000, 21.0
9.78000, 18.0
9.79000, 16.0
9.80000, 17.0
9.81000, 17.0
9.82000, 20.0
9.83000, 20.0
9.84000, 19.0
9.85000, 15.0
9.86000, 23.0
9.87000, 17.0
9.88000, 14.0
9.89000, 20.0
9.90000, 20.0
9.91000, 19.0
9.92000, 15.0
9.93000, 21.0
9.94000, 20.0
9.95000, 13.0
9.96000, 17.0
9.97000, 18.0
9.98000, 19.0
9.99000, 19.0
10.00000, 17.0
10.01000, 19.0
10.02000, 17.0
10.03000, 15.0
10.04000, 25.0
10.05000, 18.0
10.06000, 17.0
10.07000, 18.0
10.08000, 18.0
10.09000, 12.0
10.10000, 23.0
10.11000, 17.0
10.12000, 19.0
10.13000, 17.0
10.13500, 16.0
#ENDOFDATA   :